#
# Results on Saturday May 09 2015 17:32:59 UTC.
# USER AGENT: Mozilla/5.0 (Windows NT 6.1) AppleWebKit/537.36 (KHTML, like Gecko) Chrome/42.0.2311.135 Safari/537.36
# Design number was non-random = 17
#
# Columns below this comment are as follows:
# 1. Time results were received.
# 2. MD5 hash of participant's IP address.
# 3. Controller name.
# 4. Item number.
# 5. Element number.
# 6. Type.
# 7. Group.
# 8. Field name.
# 9. Field value.
1431192779,4f7ee7e76f42d7ab3ce62757acef2d88,Form,1,0,intro,NULL,age,18
1431192779,4f7ee7e76f42d7ab3ce62757acef2d88,Form,1,0,intro,NULL,place of birth,Veszprém
1431192779,4f7ee7e76f42d7ab3ce62757acef2d88,Form,1,0,intro,NULL,residence,Veszprém
1431192779,4f7ee7e76f42d7ab3ce62757acef2d88,Form,1,0,intro,NULL,consent,yes
1431192779,4f7ee7e76f42d7ab3ce62757acef2d88,Form,1,0,intro,NULL,sex,female
# The lines below this comment are in groups of 2.
# The formats of the lines in each of these groups are as follows:
#
# Line 1:
#     Col. 1: Time results were received.
#     Col. 2: MD5 hash of participant's IP address.
#     Col. 3: Controller name.
#     Col. 4: Item number.
#     Col. 5: Element number.
#     Col. 6: Type.
#     Col. 7: Group.
#     Col. 8: Sentence (or sentence MD5).
# Line 2:
#     Col. 1: Time results were received.
#     Col. 2: MD5 hash of participant's IP address.
#     Col. 3: Controller name.
#     Col. 4: Item number.
#     Col. 5: Element number.
#     Col. 6: Type.
#     Col. 7: Group.
#     Col. 8: Question (NULL if none).
#     Col. 9: Answer.
#     Col. 10: Whether or not answer was correct (NULL if N/A).
#     Col. 11: Time taken to answer.
1431192779,4f7ee7e76f42d7ab3ce62757acef2d88,AcceptabilityJudgment,2,0,practice,NULL,undefined
1431192779,4f7ee7e76f42d7ab3ce62757acef2d88,AcceptabilityJudgment,2,0,practice,NULL,Ismerem Mari hugát.,5,NULL,28118
1431192779,4f7ee7e76f42d7ab3ce62757acef2d88,AcceptabilityJudgment,3,0,practice,NULL,undefined
1431192779,4f7ee7e76f42d7ab3ce62757acef2d88,AcceptabilityJudgment,3,0,practice,NULL,Laci látja az autót.,1,NULL,12098
1431192779,4f7ee7e76f42d7ab3ce62757acef2d88,AcceptabilityJudgment,4,0,practice,NULL,undefined
1431192779,4f7ee7e76f42d7ab3ce62757acef2d88,AcceptabilityJudgment,4,0,practice,NULL,Péter mentek haza.,1,NULL,8019
1431192779,4f7ee7e76f42d7ab3ce62757acef2d88,AcceptabilityJudgment,106,0,tf32,34,undefined
1431192779,4f7ee7e76f42d7ab3ce62757acef2d88,AcceptabilityJudgment,106,0,tf32,34,Megállnak a rendőrök a ház melett.,5,NULL,9900
1431192779,4f7ee7e76f42d7ab3ce62757acef2d88,AcceptabilityJudgment,100,0,t-A1-jul-dat-obj-2,32,undefined
1431192779,4f7ee7e76f42d7ab3ce62757acef2d88,AcceptabilityJudgment,100,0,t-A1-jul-dat-obj-2,32,Juli találta az írónak regényét.,1,NULL,6984
1431192779,4f7ee7e76f42d7ab3ce62757acef2d88,AcceptabilityJudgment,168,0,f20,NULL,undefined
1431192779,4f7ee7e76f42d7ab3ce62757acef2d88,AcceptabilityJudgment,168,0,f20,NULL,János ivott meg egy korsóval tegnap este.,4,NULL,10550
1431192779,4f7ee7e76f42d7ab3ce62757acef2d88,AcceptabilityJudgment,130,0,tf40,42,undefined
1431192779,4f7ee7e76f42d7ab3ce62757acef2d88,AcceptabilityJudgment,130,0,tf40,42,János ivott egy korsóval meg a vacsorán.,3,NULL,7459
1431192779,4f7ee7e76f42d7ab3ce62757acef2d88,AcceptabilityJudgment,55,0,t-A1-mar-dat-sbj-2,17,undefined
1431192779,4f7ee7e76f42d7ab3ce62757acef2d88,AcceptabilityJudgment,55,0,t-A1-mar-dat-sbj-2,17,Mari olvasott Petőfinek versét.,1,NULL,9818
1431192779,4f7ee7e76f42d7ab3ce62757acef2d88,AcceptabilityJudgment,156,0,f08,NULL,undefined
1431192779,4f7ee7e76f42d7ab3ce62757acef2d88,AcceptabilityJudgment,156,0,f08,NULL,A rendőr megállnak ház melett.,1,NULL,4576
1431192779,4f7ee7e76f42d7ab3ce62757acef2d88,AcceptabilityJudgment,40,0,t-A3-ada-dat-obj-2,12,undefined
1431192779,4f7ee7e76f42d7ab3ce62757acef2d88,AcceptabilityJudgment,40,0,t-A3-ada-dat-obj-2,12,Ádám kereste Monetnek tájképét.,3,NULL,7990
1431192779,4f7ee7e76f42d7ab3ce62757acef2d88,AcceptabilityJudgment,171,0,f23,NULL,undefined
1431192779,4f7ee7e76f42d7ab3ce62757acef2d88,AcceptabilityJudgment,171,0,f23,NULL,Két gyerek ad egy könyvet Marinak.,4,NULL,8524
1431192779,4f7ee7e76f42d7ab3ce62757acef2d88,AcceptabilityJudgment,97,0,t-A1-jul-dat-sbj-2,31,undefined
1431192779,4f7ee7e76f42d7ab3ce62757acef2d88,AcceptabilityJudgment,97,0,t-A1-jul-dat-sbj-2,31,Juli talált az írónak regényét.,1,NULL,3434
1431192779,4f7ee7e76f42d7ab3ce62757acef2d88,AcceptabilityJudgment,112,0,tf34,36,undefined
1431192779,4f7ee7e76f42d7ab3ce62757acef2d88,AcceptabilityJudgment,112,0,tf34,36,A rendőr megállank ház.,1,NULL,4148
1431192779,4f7ee7e76f42d7ab3ce62757acef2d88,AcceptabilityJudgment,166,0,f18,NULL,undefined
1431192779,4f7ee7e76f42d7ab3ce62757acef2d88,AcceptabilityJudgment,166,0,f18,NULL,A benzin drágább mint amilyen gyors az auto.,2,NULL,8628
1431192779,4f7ee7e76f42d7ab3ce62757acef2d88,AcceptabilityJudgment,127,0,tf39,41,undefined
1431192779,4f7ee7e76f42d7ab3ce62757acef2d88,AcceptabilityJudgment,127,0,tf39,41,János ivott meg egy korsóval a vacsorán.,5,NULL,6069
1431192779,4f7ee7e76f42d7ab3ce62757acef2d88,AcceptabilityJudgment,151,0,f03,NULL,undefined
1431192779,4f7ee7e76f42d7ab3ce62757acef2d88,AcceptabilityJudgment,151,0,f03,NULL,A koncert az együttes befejez.,1,NULL,4366
1431192779,4f7ee7e76f42d7ab3ce62757acef2d88,AcceptabilityJudgment,103,0,tf31,33,undefined
1431192779,4f7ee7e76f42d7ab3ce62757acef2d88,AcceptabilityJudgment,103,0,tf31,33,Két gyerek ad egy könyvet Marinak.,3,NULL,3846
1431192779,4f7ee7e76f42d7ab3ce62757acef2d88,AcceptabilityJudgment,76,0,t-A1-pet-dat-obj-2,24,undefined
1431192779,4f7ee7e76f42d7ab3ce62757acef2d88,AcceptabilityJudgment,76,0,t-A1-pet-dat-obj-2,24,Péter ismerte a szomszédnak lányát.,4,NULL,5021
1431192779,4f7ee7e76f42d7ab3ce62757acef2d88,AcceptabilityJudgment,167,0,f19,NULL,undefined
1431192779,4f7ee7e76f42d7ab3ce62757acef2d88,AcceptabilityJudgment,167,0,f19,NULL,Tegnap ment haza a nagyfőnök a börtőnből.,7,NULL,6198
1431192779,4f7ee7e76f42d7ab3ce62757acef2d88,AcceptabilityJudgment,37,0,t-A3-ada-dat-sbj-2,11,undefined
1431192779,4f7ee7e76f42d7ab3ce62757acef2d88,AcceptabilityJudgment,37,0,t-A3-ada-dat-sbj-2,11,Ádám keresett Monetnek tájképét.,3,NULL,4354
1431192779,4f7ee7e76f42d7ab3ce62757acef2d88,AcceptabilityJudgment,19,0,t-A1-pet-dat-sbj-2,5,undefined
1431192779,4f7ee7e76f42d7ab3ce62757acef2d88,AcceptabilityJudgment,19,0,t-A1-pet-dat-sbj-2,5,Péter ismert a szomszédnak lányát.,3,NULL,4122
1431192779,4f7ee7e76f42d7ab3ce62757acef2d88,AcceptabilityJudgment,165,0,f17,NULL,undefined
1431192779,4f7ee7e76f42d7ab3ce62757acef2d88,AcceptabilityJudgment,165,0,f17,NULL,A bélyeg drágább mint amilyen nehéz a csomag.,4,NULL,5151
1431192779,4f7ee7e76f42d7ab3ce62757acef2d88,AcceptabilityJudgment,85,0,t-A1-ada-dat-sbj-2,27,undefined
1431192779,4f7ee7e76f42d7ab3ce62757acef2d88,AcceptabilityJudgment,85,0,t-A1-ada-dat-sbj-2,27,Ádám keresett Monetnek tájképét.,3,NULL,4084
1431192779,4f7ee7e76f42d7ab3ce62757acef2d88,AcceptabilityJudgment,155,0,f07,NULL,undefined
1431192779,4f7ee7e76f42d7ab3ce62757acef2d88,AcceptabilityJudgment,155,0,f07,NULL,Megállnak a rendőr a ház.,1,NULL,1877
1431192779,4f7ee7e76f42d7ab3ce62757acef2d88,AcceptabilityJudgment,58,0,t-A1-mar-dat-obj-2,18,undefined
1431192779,4f7ee7e76f42d7ab3ce62757acef2d88,AcceptabilityJudgment,58,0,t-A1-mar-dat-obj-2,18,Mari olvasta Petőfinek versét.,3,NULL,6268
1431192779,4f7ee7e76f42d7ab3ce62757acef2d88,AcceptabilityJudgment,61,0,t-A1-mar-dat-sbj-2,19,undefined
1431192779,4f7ee7e76f42d7ab3ce62757acef2d88,AcceptabilityJudgment,61,0,t-A1-mar-dat-sbj-2,19,Mari olvasott Petőfinek versét.,2,NULL,4439
1431192779,4f7ee7e76f42d7ab3ce62757acef2d88,AcceptabilityJudgment,173,0,f25,NULL,undefined
1431192779,4f7ee7e76f42d7ab3ce62757acef2d88,AcceptabilityJudgment,173,0,f25,NULL,A kutya Maritól futott el.,5,NULL,5001
1431192779,4f7ee7e76f42d7ab3ce62757acef2d88,AcceptabilityJudgment,79,0,t-A1-ada-dat-sbj-2,25,undefined
1431192779,4f7ee7e76f42d7ab3ce62757acef2d88,AcceptabilityJudgment,79,0,t-A1-ada-dat-sbj-2,25,Ádám keresett Monetnek tájképét.,2,NULL,2130
1431192779,4f7ee7e76f42d7ab3ce62757acef2d88,AcceptabilityJudgment,175,0,f27,NULL,undefined
1431192779,4f7ee7e76f42d7ab3ce62757acef2d88,AcceptabilityJudgment,175,0,f27,NULL,Megállnak a rendőrök a ház mellett.,7,NULL,3387
1431192779,4f7ee7e76f42d7ab3ce62757acef2d88,AcceptabilityJudgment,73,0,t-A1-pet-dat-sbj-2,23,undefined
1431192779,4f7ee7e76f42d7ab3ce62757acef2d88,AcceptabilityJudgment,73,0,t-A1-pet-dat-sbj-2,23,Péter ismert a szomszédnak lányát.,3,NULL,2062
1431192779,4f7ee7e76f42d7ab3ce62757acef2d88,AcceptabilityJudgment,148,0,tf46,48,undefined
1431192779,4f7ee7e76f42d7ab3ce62757acef2d88,AcceptabilityJudgment,148,0,tf46,48,Imre és Juli látta sajátmagukat a tévében.,5,NULL,8602
1431192779,4f7ee7e76f42d7ab3ce62757acef2d88,AcceptabilityJudgment,159,0,f11,NULL,undefined
1431192779,4f7ee7e76f42d7ab3ce62757acef2d88,AcceptabilityJudgment,159,0,f11,NULL,János ivott egy korsóval meg tegnap este.,4,NULL,2736
1431192779,4f7ee7e76f42d7ab3ce62757acef2d88,AcceptabilityJudgment,52,0,t-A1-jul-dat-obj-2,16,undefined
1431192779,4f7ee7e76f42d7ab3ce62757acef2d88,AcceptabilityJudgment,52,0,t-A1-jul-dat-obj-2,16,Juli találta az írónak regényét.,1,NULL,2030
1431192779,4f7ee7e76f42d7ab3ce62757acef2d88,AcceptabilityJudgment,109,0,tf33,35,undefined
1431192779,4f7ee7e76f42d7ab3ce62757acef2d88,AcceptabilityJudgment,109,0,tf33,35,A koncertet az együttes befejezte.,7,NULL,3154
1431192779,4f7ee7e76f42d7ab3ce62757acef2d88,AcceptabilityJudgment,158,0,f10,NULL,undefined
1431192779,4f7ee7e76f42d7ab3ce62757acef2d88,AcceptabilityJudgment,158,0,f10,NULL,A vacsoráját biztosan Ádám megeszi.,5,NULL,4786
1431192779,4f7ee7e76f42d7ab3ce62757acef2d88,AcceptabilityJudgment,94,0,t-A1-jul-dat-obj-2,30,undefined
1431192779,4f7ee7e76f42d7ab3ce62757acef2d88,AcceptabilityJudgment,94,0,t-A1-jul-dat-obj-2,30,Juli találta az írónak regényét.,2,NULL,2283
1431192779,4f7ee7e76f42d7ab3ce62757acef2d88,AcceptabilityJudgment,161,0,f13,NULL,undefined
1431192779,4f7ee7e76f42d7ab3ce62757acef2d88,AcceptabilityJudgment,161,0,f13,NULL,Tegnap ment a nagyfőnök haza a börtönből.,7,NULL,2481
1431192779,4f7ee7e76f42d7ab3ce62757acef2d88,AcceptabilityJudgment,142,0,tf44,46,undefined
1431192779,4f7ee7e76f42d7ab3ce62757acef2d88,AcceptabilityJudgment,142,0,tf44,46,Tegnap ment István az iskolából haza.,6,NULL,4876
1431192779,4f7ee7e76f42d7ab3ce62757acef2d88,AcceptabilityJudgment,64,0,t-A1-mar-dat-obj-2,20,undefined
1431192779,4f7ee7e76f42d7ab3ce62757acef2d88,AcceptabilityJudgment,64,0,t-A1-mar-dat-obj-2,20,Mari olvasta Petőfinek versét.,3,NULL,4526
1431192779,4f7ee7e76f42d7ab3ce62757acef2d88,AcceptabilityJudgment,153,0,f05,NULL,undefined
1431192779,4f7ee7e76f42d7ab3ce62757acef2d88,AcceptabilityJudgment,153,0,f05,NULL,A kutya elfutott Marinak.,4,NULL,4422
1431192779,4f7ee7e76f42d7ab3ce62757acef2d88,AcceptabilityJudgment,136,0,tf42,44,undefined
1431192779,4f7ee7e76f42d7ab3ce62757acef2d88,AcceptabilityJudgment,136,0,tf42,44,Tegnap ment haza István az iskolából.,7,NULL,2361
1431192779,4f7ee7e76f42d7ab3ce62757acef2d88,AcceptabilityJudgment,169,0,f21,NULL,undefined
1431192779,4f7ee7e76f42d7ab3ce62757acef2d88,AcceptabilityJudgment,169,0,f21,NULL,Egy könyvet adnak a gyerekek Marinak.,7,NULL,3135
1431192779,4f7ee7e76f42d7ab3ce62757acef2d88,AcceptabilityJudgment,31,0,t-A1-ada-dat-sbj-2,9,undefined
1431192779,4f7ee7e76f42d7ab3ce62757acef2d88,AcceptabilityJudgment,31,0,t-A1-ada-dat-sbj-2,9,Ádám keresett Monetnek tájképét.,2,NULL,2593
1431192779,4f7ee7e76f42d7ab3ce62757acef2d88,AcceptabilityJudgment,139,0,tf43,45,undefined
1431192779,4f7ee7e76f42d7ab3ce62757acef2d88,AcceptabilityJudgment,139,0,tf43,45,Tegnap ment István haza az iskolából.,7,NULL,2551
1431192779,4f7ee7e76f42d7ab3ce62757acef2d88,AcceptabilityJudgment,172,0,f24,NULL,undefined
1431192779,4f7ee7e76f42d7ab3ce62757acef2d88,AcceptabilityJudgment,172,0,f24,NULL,Az együttes befelyezi a koncertet.,7,NULL,1957
1431192779,4f7ee7e76f42d7ab3ce62757acef2d88,AcceptabilityJudgment,133,0,tf41,43,undefined
1431192779,4f7ee7e76f42d7ab3ce62757acef2d88,AcceptabilityJudgment,133,0,tf41,43,János ivott egy korsóval a vacsorán meg.,1,NULL,2774
1431192779,4f7ee7e76f42d7ab3ce62757acef2d88,AcceptabilityJudgment,91,0,t-A1-jul-dat-sbj-2,29,undefined
1431192779,4f7ee7e76f42d7ab3ce62757acef2d88,AcceptabilityJudgment,91,0,t-A1-jul-dat-sbj-2,29,Juli talált az írónak regényét.,1,NULL,4365
1431192779,4f7ee7e76f42d7ab3ce62757acef2d88,AcceptabilityJudgment,149,0,f01,NULL,undefined
1431192779,4f7ee7e76f42d7ab3ce62757acef2d88,AcceptabilityJudgment,149,0,f01,NULL,Két gyerek adnak egy könyvet Marinak.,1,NULL,3611
1431192779,4f7ee7e76f42d7ab3ce62757acef2d88,AcceptabilityJudgment,28,0,t-A1-pet-dat-obj-2,8,undefined
1431192779,4f7ee7e76f42d7ab3ce62757acef2d88,AcceptabilityJudgment,28,0,t-A1-pet-dat-obj-2,8,Péter ismerte a szomszédnak lányát.,2,NULL,3364
1431192779,4f7ee7e76f42d7ab3ce62757acef2d88,AcceptabilityJudgment,178,0,f30,NULL,undefined
1431192779,4f7ee7e76f42d7ab3ce62757acef2d88,AcceptabilityJudgment,178,0,f30,NULL,Ádám megeszi a vacsorát%2C az biztos.,7,NULL,2747
1431192779,4f7ee7e76f42d7ab3ce62757acef2d88,AcceptabilityJudgment,118,0,tf36,38,undefined
1431192779,4f7ee7e76f42d7ab3ce62757acef2d88,AcceptabilityJudgment,118,0,tf36,38,Az együttes befejez a koncertet.,1,NULL,1783
1431192779,4f7ee7e76f42d7ab3ce62757acef2d88,AcceptabilityJudgment,145,0,tf45,47,undefined
1431192779,4f7ee7e76f42d7ab3ce62757acef2d88,AcceptabilityJudgment,145,0,tf45,47,Imre és Juli látta sajátmagát a tévében.,5,NULL,4744
1431192779,4f7ee7e76f42d7ab3ce62757acef2d88,AcceptabilityJudgment,162,0,f14,NULL,undefined
1431192779,4f7ee7e76f42d7ab3ce62757acef2d88,AcceptabilityJudgment,162,0,f14,NULL,Tegnap ment a nagyfőnök a börtönből haza.,6,NULL,3388
1431192779,4f7ee7e76f42d7ab3ce62757acef2d88,AcceptabilityJudgment,82,0,t-A1-ada-dat-obj-2,26,undefined
1431192779,4f7ee7e76f42d7ab3ce62757acef2d88,AcceptabilityJudgment,82,0,t-A1-ada-dat-obj-2,26,Ádám kereste Monetnek tájképét.,2,NULL,1930
1431192779,4f7ee7e76f42d7ab3ce62757acef2d88,AcceptabilityJudgment,160,0,f12,NULL,undefined
1431192779,4f7ee7e76f42d7ab3ce62757acef2d88,AcceptabilityJudgment,160,0,f12,NULL,János ivott egy korsóval tegnap este meg.,3,NULL,4174
1431192779,4f7ee7e76f42d7ab3ce62757acef2d88,AcceptabilityJudgment,49,0,t-A1-jul-dat-sbj-2,15,undefined
1431192779,4f7ee7e76f42d7ab3ce62757acef2d88,AcceptabilityJudgment,49,0,t-A1-jul-dat-sbj-2,15,Juli talált az írónak regényét.,1,NULL,1912
1431192779,4f7ee7e76f42d7ab3ce62757acef2d88,AcceptabilityJudgment,43,0,t-A1-jul-dat-sbj-2,13,undefined
1431192779,4f7ee7e76f42d7ab3ce62757acef2d88,AcceptabilityJudgment,43,0,t-A1-jul-dat-sbj-2,13,Juli talált az írónak regényét.,1,NULL,1561
1431192779,4f7ee7e76f42d7ab3ce62757acef2d88,AcceptabilityJudgment,152,0,f04,NULL,undefined
1431192779,4f7ee7e76f42d7ab3ce62757acef2d88,AcceptabilityJudgment,152,0,f04,NULL,Az együttes befejez a koncertet.,1,NULL,2182
1431192779,4f7ee7e76f42d7ab3ce62757acef2d88,AcceptabilityJudgment,25,0,t-A1-pet-dat-sbj-2,7,undefined
1431192779,4f7ee7e76f42d7ab3ce62757acef2d88,AcceptabilityJudgment,25,0,t-A1-pet-dat-sbj-2,7,Péter ismert a szomszédnak lányát.,1,NULL,3052
1431192779,4f7ee7e76f42d7ab3ce62757acef2d88,AcceptabilityJudgment,16,0,t-A1-mar-dat-obj-2,4,undefined
1431192779,4f7ee7e76f42d7ab3ce62757acef2d88,AcceptabilityJudgment,16,0,t-A1-mar-dat-obj-2,4,Mari olvasta Petőfinek versét.,7,NULL,2209
1431192779,4f7ee7e76f42d7ab3ce62757acef2d88,AcceptabilityJudgment,150,0,f02,NULL,undefined
1431192779,4f7ee7e76f42d7ab3ce62757acef2d88,AcceptabilityJudgment,150,0,f02,NULL,Marinak adnak két gyerek egy könyvet.,1,NULL,4674
1431192779,4f7ee7e76f42d7ab3ce62757acef2d88,AcceptabilityJudgment,10,0,t-A1-mar-dat-obj-2,2,undefined
1431192779,4f7ee7e76f42d7ab3ce62757acef2d88,AcceptabilityJudgment,10,0,t-A1-mar-dat-obj-2,2,Mari olvasta Petőfinek versét.,6,NULL,2847
1431192779,4f7ee7e76f42d7ab3ce62757acef2d88,AcceptabilityJudgment,176,0,f28,NULL,undefined
1431192779,4f7ee7e76f42d7ab3ce62757acef2d88,AcceptabilityJudgment,176,0,f28,NULL,A rendőrök a ház mellett álltak meg.,7,NULL,2559
1431192779,4f7ee7e76f42d7ab3ce62757acef2d88,AcceptabilityJudgment,88,0,t-A1-ada-dat-obj-2,28,undefined
1431192779,4f7ee7e76f42d7ab3ce62757acef2d88,AcceptabilityJudgment,88,0,t-A1-ada-dat-obj-2,28,Ádám kereste Monetnek tájképét.,1,NULL,1743
1431192779,4f7ee7e76f42d7ab3ce62757acef2d88,AcceptabilityJudgment,67,0,t-A1-pet-dat-sbj-2,21,undefined
1431192779,4f7ee7e76f42d7ab3ce62757acef2d88,AcceptabilityJudgment,67,0,t-A1-pet-dat-sbj-2,21,Péter ismert a szomszédnak lányát.,1,NULL,2102
1431192779,4f7ee7e76f42d7ab3ce62757acef2d88,AcceptabilityJudgment,164,0,f16,NULL,undefined
1431192779,4f7ee7e76f42d7ab3ce62757acef2d88,AcceptabilityJudgment,164,0,f16,NULL,Péter szélesebb volt mint Csaba magas.,1,NULL,4205
1431192779,4f7ee7e76f42d7ab3ce62757acef2d88,AcceptabilityJudgment,34,0,t-A1-ada-dat-obj-2,10,undefined
1431192779,4f7ee7e76f42d7ab3ce62757acef2d88,AcceptabilityJudgment,34,0,t-A1-ada-dat-obj-2,10,Ádám kereste Monetnek tájképét.,1,NULL,1023
1431192779,4f7ee7e76f42d7ab3ce62757acef2d88,AcceptabilityJudgment,163,0,f15,NULL,undefined
1431192779,4f7ee7e76f42d7ab3ce62757acef2d88,AcceptabilityJudgment,163,0,f15,NULL,Cirmi nagyobb volt mint a macskaajtó széles.,1,NULL,5315
1431192779,4f7ee7e76f42d7ab3ce62757acef2d88,AcceptabilityJudgment,124,0,tf38,40,undefined
1431192779,4f7ee7e76f42d7ab3ce62757acef2d88,AcceptabilityJudgment,124,0,tf38,40,Ádám megeszi a vacsorát.,7,NULL,1869
1431192779,4f7ee7e76f42d7ab3ce62757acef2d88,AcceptabilityJudgment,115,0,tf35,37,undefined
1431192779,4f7ee7e76f42d7ab3ce62757acef2d88,AcceptabilityJudgment,115,0,tf35,37,A rendőrök a ház mellett álltak meg.,7,NULL,1722
1431192779,4f7ee7e76f42d7ab3ce62757acef2d88,AcceptabilityJudgment,177,0,f29,NULL,undefined
1431192779,4f7ee7e76f42d7ab3ce62757acef2d88,AcceptabilityJudgment,177,0,f29,NULL,Ádám biztosan megeszi a vacsoráját.,7,NULL,1216
1431192779,4f7ee7e76f42d7ab3ce62757acef2d88,AcceptabilityJudgment,70,0,t-A1-pet-dat-obj-2,22,undefined
1431192779,4f7ee7e76f42d7ab3ce62757acef2d88,AcceptabilityJudgment,70,0,t-A1-pet-dat-obj-2,22,Péter ismerte a szomszédnak lányát.,2,NULL,2544
1431192779,4f7ee7e76f42d7ab3ce62757acef2d88,AcceptabilityJudgment,22,0,t-A1-pet-dat-obj-2,6,undefined
1431192779,4f7ee7e76f42d7ab3ce62757acef2d88,AcceptabilityJudgment,22,0,t-A1-pet-dat-obj-2,6,Péter ismerte a szomszédnak lányát.,1,NULL,1243
1431192779,4f7ee7e76f42d7ab3ce62757acef2d88,AcceptabilityJudgment,170,0,f22,NULL,undefined
1431192779,4f7ee7e76f42d7ab3ce62757acef2d88,AcceptabilityJudgment,170,0,f22,NULL,Marinak adnak egy könyvet a gyerekek.,7,NULL,2965
1431192779,4f7ee7e76f42d7ab3ce62757acef2d88,AcceptabilityJudgment,121,0,tf37,39,undefined
1431192779,4f7ee7e76f42d7ab3ce62757acef2d88,AcceptabilityJudgment,121,0,tf37,39,Ádám a megeszi vacsora.,1,NULL,1648
1431192779,4f7ee7e76f42d7ab3ce62757acef2d88,AcceptabilityJudgment,174,0,f26,NULL,undefined
1431192779,4f7ee7e76f42d7ab3ce62757acef2d88,AcceptabilityJudgment,174,0,f26,NULL,Maritól futott el a kutya.,5,NULL,2730
1431192779,4f7ee7e76f42d7ab3ce62757acef2d88,AcceptabilityJudgment,7,0,t-A1-mar-dat-sbj-2,1,undefined
1431192779,4f7ee7e76f42d7ab3ce62757acef2d88,AcceptabilityJudgment,7,0,t-A1-mar-dat-sbj-2,1,Mari olvasott Petőfinek versét.,1,NULL,2971
1431192779,4f7ee7e76f42d7ab3ce62757acef2d88,AcceptabilityJudgment,13,0,t-A1-mar-dat-sbj-2,3,undefined
1431192779,4f7ee7e76f42d7ab3ce62757acef2d88,AcceptabilityJudgment,13,0,t-A1-mar-dat-sbj-2,3,Mari olvasott Petőfinek versét.,1,NULL,752
1431192779,4f7ee7e76f42d7ab3ce62757acef2d88,AcceptabilityJudgment,157,0,f09,NULL,undefined
1431192779,4f7ee7e76f42d7ab3ce62757acef2d88,AcceptabilityJudgment,157,0,f09,NULL,Ádám megeszi vacsora biztosan. ,1,NULL,2219
1431192779,4f7ee7e76f42d7ab3ce62757acef2d88,AcceptabilityJudgment,46,0,t-A1-jul-dat-obj-2,14,undefined
1431192779,4f7ee7e76f42d7ab3ce62757acef2d88,AcceptabilityJudgment,46,0,t-A1-jul-dat-obj-2,14,Juli találta az írónak regényét.,1,NULL,1495
1431192779,4f7ee7e76f42d7ab3ce62757acef2d88,AcceptabilityJudgment,154,0,f06,NULL,undefined
1431192779,4f7ee7e76f42d7ab3ce62757acef2d88,AcceptabilityJudgment,154,0,f06,NULL,Elfutnak a kutya Maritól.,1,NULL,1595
#
# Results on Saturday May 09 2015 17:53:00 UTC.
# USER AGENT: Mozilla/5.0 (Linux; Android 5.0.2; HTC One Build/LRX22G; wv) AppleWebKit/537.36 (KHTML, like Gecko) Version/4.0 Chrome/42.0.2311.137 Mobile Safari/537.36 [FB_IAB/FB4A;FBAV/32.0.0.23.15;]
# Design number was non-random = 17
#
# Columns below this comment are as follows:
# 1. Time results were received.
# 2. MD5 hash of participant's IP address.
# 3. Controller name.
# 4. Item number.
# 5. Element number.
# 6. Type.
# 7. Group.
# 8. Field name.
# 9. Field value.
1431193981,3d843334c4543973704480afcc040497,Form,1,0,intro,NULL,age,19
1431193981,3d843334c4543973704480afcc040497,Form,1,0,intro,NULL,place of birth,Pest
1431193981,3d843334c4543973704480afcc040497,Form,1,0,intro,NULL,residence,Vecsés
1431193981,3d843334c4543973704480afcc040497,Form,1,0,intro,NULL,consent,yes
1431193981,3d843334c4543973704480afcc040497,Form,1,0,intro,NULL,sex,female
# The lines below this comment are in groups of 2.
# The formats of the lines in each of these groups are as follows:
#
# Line 1:
#     Col. 1: Time results were received.
#     Col. 2: MD5 hash of participant's IP address.
#     Col. 3: Controller name.
#     Col. 4: Item number.
#     Col. 5: Element number.
#     Col. 6: Type.
#     Col. 7: Group.
#     Col. 8: Sentence (or sentence MD5).
# Line 2:
#     Col. 1: Time results were received.
#     Col. 2: MD5 hash of participant's IP address.
#     Col. 3: Controller name.
#     Col. 4: Item number.
#     Col. 5: Element number.
#     Col. 6: Type.
#     Col. 7: Group.
#     Col. 8: Question (NULL if none).
#     Col. 9: Answer.
#     Col. 10: Whether or not answer was correct (NULL if N/A).
#     Col. 11: Time taken to answer.
1431193981,3d843334c4543973704480afcc040497,AcceptabilityJudgment,2,0,practice,NULL,undefined
1431193981,3d843334c4543973704480afcc040497,AcceptabilityJudgment,2,0,practice,NULL,Ismerem Mari hugát.,5,NULL,35848
1431193981,3d843334c4543973704480afcc040497,AcceptabilityJudgment,3,0,practice,NULL,undefined
1431193981,3d843334c4543973704480afcc040497,AcceptabilityJudgment,3,0,practice,NULL,Laci látja az autót.,7,NULL,3921
1431193981,3d843334c4543973704480afcc040497,AcceptabilityJudgment,4,0,practice,NULL,undefined
1431193981,3d843334c4543973704480afcc040497,AcceptabilityJudgment,4,0,practice,NULL,Péter mentek haza.,1,NULL,5225
1431193981,3d843334c4543973704480afcc040497,AcceptabilityJudgment,37,0,t-A3-ada-dat-sbj-2,11,undefined
1431193981,3d843334c4543973704480afcc040497,AcceptabilityJudgment,37,0,t-A3-ada-dat-sbj-2,11,Ádám keresett Monetnek tájképét.,2,NULL,12426
1431193981,3d843334c4543973704480afcc040497,AcceptabilityJudgment,142,0,tf44,46,undefined
1431193981,3d843334c4543973704480afcc040497,AcceptabilityJudgment,142,0,tf44,46,Tegnap ment István az iskolából haza.,5,NULL,7802
1431193981,3d843334c4543973704480afcc040497,AcceptabilityJudgment,171,0,f23,NULL,undefined
1431193981,3d843334c4543973704480afcc040497,AcceptabilityJudgment,171,0,f23,NULL,Két gyerek ad egy könyvet Marinak.,5,NULL,8547
1431193981,3d843334c4543973704480afcc040497,AcceptabilityJudgment,31,0,t-A1-ada-dat-sbj-2,9,undefined
1431193981,3d843334c4543973704480afcc040497,AcceptabilityJudgment,31,0,t-A1-ada-dat-sbj-2,9,Ádám keresett Monetnek tájképét.,1,NULL,18310
1431193981,3d843334c4543973704480afcc040497,AcceptabilityJudgment,130,0,tf40,42,undefined
1431193981,3d843334c4543973704480afcc040497,AcceptabilityJudgment,130,0,tf40,42,János ivott egy korsóval meg a vacsorán.,1,NULL,63271
1431193981,3d843334c4543973704480afcc040497,AcceptabilityJudgment,162,0,f14,NULL,undefined
1431193981,3d843334c4543973704480afcc040497,AcceptabilityJudgment,162,0,f14,NULL,Tegnap ment a nagyfőnök a börtönből haza.,7,NULL,27680
1431193981,3d843334c4543973704480afcc040497,AcceptabilityJudgment,97,0,t-A1-jul-dat-sbj-2,31,undefined
1431193981,3d843334c4543973704480afcc040497,AcceptabilityJudgment,97,0,t-A1-jul-dat-sbj-2,31,Juli talált az írónak regényét.,1,NULL,5293
1431193981,3d843334c4543973704480afcc040497,AcceptabilityJudgment,177,0,f29,NULL,undefined
1431193981,3d843334c4543973704480afcc040497,AcceptabilityJudgment,177,0,f29,NULL,Ádám biztosan megeszi a vacsoráját.,7,NULL,4595
1431193981,3d843334c4543973704480afcc040497,AcceptabilityJudgment,148,0,tf46,48,undefined
1431193981,3d843334c4543973704480afcc040497,AcceptabilityJudgment,148,0,tf46,48,Imre és Juli látta sajátmagukat a tévében.,3,NULL,11679
1431193981,3d843334c4543973704480afcc040497,AcceptabilityJudgment,7,0,t-A1-mar-dat-sbj-2,1,undefined
1431193981,3d843334c4543973704480afcc040497,AcceptabilityJudgment,7,0,t-A1-mar-dat-sbj-2,1,Mari olvasott Petőfinek versét.,1,NULL,3677
1431193981,3d843334c4543973704480afcc040497,AcceptabilityJudgment,153,0,f05,NULL,undefined
1431193981,3d843334c4543973704480afcc040497,AcceptabilityJudgment,153,0,f05,NULL,A kutya elfutott Marinak.,1,NULL,4273
1431193981,3d843334c4543973704480afcc040497,AcceptabilityJudgment,13,0,t-A1-mar-dat-sbj-2,3,undefined
1431193981,3d843334c4543973704480afcc040497,AcceptabilityJudgment,13,0,t-A1-mar-dat-sbj-2,3,Mari olvasott Petőfinek versét.,1,NULL,2389
1431193981,3d843334c4543973704480afcc040497,AcceptabilityJudgment,151,0,f03,NULL,undefined
1431193981,3d843334c4543973704480afcc040497,AcceptabilityJudgment,151,0,f03,NULL,A koncert az együttes befejez.,1,NULL,3339
1431193981,3d843334c4543973704480afcc040497,AcceptabilityJudgment,40,0,t-A3-ada-dat-obj-2,12,undefined
1431193981,3d843334c4543973704480afcc040497,AcceptabilityJudgment,40,0,t-A3-ada-dat-obj-2,12,Ádám kereste Monetnek tájképét.,1,NULL,2736
1431193981,3d843334c4543973704480afcc040497,AcceptabilityJudgment,85,0,t-A1-ada-dat-sbj-2,27,undefined
1431193981,3d843334c4543973704480afcc040497,AcceptabilityJudgment,85,0,t-A1-ada-dat-sbj-2,27,Ádám keresett Monetnek tájképét.,1,NULL,893
1431193981,3d843334c4543973704480afcc040497,AcceptabilityJudgment,154,0,f06,NULL,undefined
1431193981,3d843334c4543973704480afcc040497,AcceptabilityJudgment,154,0,f06,NULL,Elfutnak a kutya Maritól.,1,NULL,488
1431193981,3d843334c4543973704480afcc040497,AcceptabilityJudgment,52,0,t-A1-jul-dat-obj-2,16,undefined
1431193981,3d843334c4543973704480afcc040497,AcceptabilityJudgment,52,0,t-A1-jul-dat-obj-2,16,Juli találta az írónak regényét.,1,NULL,532
1431193981,3d843334c4543973704480afcc040497,AcceptabilityJudgment,61,0,t-A1-mar-dat-sbj-2,19,undefined
1431193981,3d843334c4543973704480afcc040497,AcceptabilityJudgment,61,0,t-A1-mar-dat-sbj-2,19,Mari olvasott Petőfinek versét.,1,NULL,301
1431193981,3d843334c4543973704480afcc040497,AcceptabilityJudgment,166,0,f18,NULL,undefined
1431193981,3d843334c4543973704480afcc040497,AcceptabilityJudgment,166,0,f18,NULL,A benzin drágább mint amilyen gyors az auto.,1,NULL,1883
1431193981,3d843334c4543973704480afcc040497,AcceptabilityJudgment,16,0,t-A1-mar-dat-obj-2,4,undefined
1431193981,3d843334c4543973704480afcc040497,AcceptabilityJudgment,16,0,t-A1-mar-dat-obj-2,4,Mari olvasta Petőfinek versét.,2,NULL,887
1431193981,3d843334c4543973704480afcc040497,AcceptabilityJudgment,158,0,f10,NULL,undefined
1431193981,3d843334c4543973704480afcc040497,AcceptabilityJudgment,158,0,f10,NULL,A vacsoráját biztosan Ádám megeszi.,4,NULL,564
1431193981,3d843334c4543973704480afcc040497,AcceptabilityJudgment,49,0,t-A1-jul-dat-sbj-2,15,undefined
1431193981,3d843334c4543973704480afcc040497,AcceptabilityJudgment,49,0,t-A1-jul-dat-sbj-2,15,Juli talált az írónak regényét.,1,NULL,436
1431193981,3d843334c4543973704480afcc040497,AcceptabilityJudgment,34,0,t-A1-ada-dat-obj-2,10,undefined
1431193981,3d843334c4543973704480afcc040497,AcceptabilityJudgment,34,0,t-A1-ada-dat-obj-2,10,Ádám kereste Monetnek tájképét.,5,NULL,382
1431193981,3d843334c4543973704480afcc040497,AcceptabilityJudgment,165,0,f17,NULL,undefined
1431193981,3d843334c4543973704480afcc040497,AcceptabilityJudgment,165,0,f17,NULL,A bélyeg drágább mint amilyen nehéz a csomag.,7,NULL,289
1431193981,3d843334c4543973704480afcc040497,AcceptabilityJudgment,55,0,t-A1-mar-dat-sbj-2,17,undefined
1431193981,3d843334c4543973704480afcc040497,AcceptabilityJudgment,55,0,t-A1-mar-dat-sbj-2,17,Mari olvasott Petőfinek versét.,3,NULL,330
1431193981,3d843334c4543973704480afcc040497,AcceptabilityJudgment,152,0,f04,NULL,undefined
1431193981,3d843334c4543973704480afcc040497,AcceptabilityJudgment,152,0,f04,NULL,Az együttes befejez a koncertet.,5,NULL,421
1431193981,3d843334c4543973704480afcc040497,AcceptabilityJudgment,79,0,t-A1-ada-dat-sbj-2,25,undefined
1431193981,3d843334c4543973704480afcc040497,AcceptabilityJudgment,79,0,t-A1-ada-dat-sbj-2,25,Ádám keresett Monetnek tájképét.,6,NULL,296
1431193981,3d843334c4543973704480afcc040497,AcceptabilityJudgment,106,0,tf32,34,undefined
1431193981,3d843334c4543973704480afcc040497,AcceptabilityJudgment,106,0,tf32,34,Megállnak a rendőrök a ház melett.,3,NULL,290
1431193981,3d843334c4543973704480afcc040497,AcceptabilityJudgment,157,0,f09,NULL,undefined
1431193981,3d843334c4543973704480afcc040497,AcceptabilityJudgment,157,0,f09,NULL,Ádám megeszi vacsora biztosan. ,2,NULL,285
1431193981,3d843334c4543973704480afcc040497,AcceptabilityJudgment,88,0,t-A1-ada-dat-obj-2,28,undefined
1431193981,3d843334c4543973704480afcc040497,AcceptabilityJudgment,88,0,t-A1-ada-dat-obj-2,28,Ádám kereste Monetnek tájképét.,6,NULL,404
1431193981,3d843334c4543973704480afcc040497,AcceptabilityJudgment,133,0,tf41,43,undefined
1431193981,3d843334c4543973704480afcc040497,AcceptabilityJudgment,133,0,tf41,43,János ivott egy korsóval a vacsorán meg.,3,NULL,273
1431193981,3d843334c4543973704480afcc040497,AcceptabilityJudgment,175,0,f27,NULL,undefined
1431193981,3d843334c4543973704480afcc040497,AcceptabilityJudgment,175,0,f27,NULL,Megállnak a rendőrök a ház mellett.,1,NULL,244
1431193981,3d843334c4543973704480afcc040497,AcceptabilityJudgment,109,0,tf33,35,undefined
1431193981,3d843334c4543973704480afcc040497,AcceptabilityJudgment,109,0,tf33,35,A koncertet az együttes befejezte.,6,NULL,312
1431193981,3d843334c4543973704480afcc040497,AcceptabilityJudgment,156,0,f08,NULL,undefined
1431193981,3d843334c4543973704480afcc040497,AcceptabilityJudgment,156,0,f08,NULL,A rendőr megállnak ház melett.,3,NULL,268
1431193981,3d843334c4543973704480afcc040497,AcceptabilityJudgment,112,0,tf34,36,undefined
1431193981,3d843334c4543973704480afcc040497,AcceptabilityJudgment,112,0,tf34,36,A rendőr megállank ház.,1,NULL,1592
1431193981,3d843334c4543973704480afcc040497,AcceptabilityJudgment,19,0,t-A1-pet-dat-sbj-2,5,undefined
1431193981,3d843334c4543973704480afcc040497,AcceptabilityJudgment,19,0,t-A1-pet-dat-sbj-2,5,Péter ismert a szomszédnak lányát.,3,NULL,1072
1431193981,3d843334c4543973704480afcc040497,AcceptabilityJudgment,160,0,f12,NULL,undefined
1431193981,3d843334c4543973704480afcc040497,AcceptabilityJudgment,160,0,f12,NULL,János ivott egy korsóval tegnap este meg.,1,NULL,271
1431193981,3d843334c4543973704480afcc040497,AcceptabilityJudgment,82,0,t-A1-ada-dat-obj-2,26,undefined
1431193981,3d843334c4543973704480afcc040497,AcceptabilityJudgment,82,0,t-A1-ada-dat-obj-2,26,Ádám kereste Monetnek tájképét.,5,NULL,1657
1431193981,3d843334c4543973704480afcc040497,AcceptabilityJudgment,178,0,f30,NULL,undefined
1431193981,3d843334c4543973704480afcc040497,AcceptabilityJudgment,178,0,f30,NULL,Ádám megeszi a vacsorát%2C az biztos.,1,NULL,628
1431193981,3d843334c4543973704480afcc040497,AcceptabilityJudgment,76,0,t-A1-pet-dat-obj-2,24,undefined
1431193981,3d843334c4543973704480afcc040497,AcceptabilityJudgment,76,0,t-A1-pet-dat-obj-2,24,Péter ismerte a szomszédnak lányát.,6,NULL,431
1431193981,3d843334c4543973704480afcc040497,AcceptabilityJudgment,139,0,tf43,45,undefined
1431193981,3d843334c4543973704480afcc040497,AcceptabilityJudgment,139,0,tf43,45,Tegnap ment István haza az iskolából.,1,NULL,361
1431193981,3d843334c4543973704480afcc040497,AcceptabilityJudgment,173,0,f25,NULL,undefined
1431193981,3d843334c4543973704480afcc040497,AcceptabilityJudgment,173,0,f25,NULL,A kutya Maritól futott el.,6,NULL,682
1431193981,3d843334c4543973704480afcc040497,AcceptabilityJudgment,124,0,tf38,40,undefined
1431193981,3d843334c4543973704480afcc040497,AcceptabilityJudgment,124,0,tf38,40,Ádám megeszi a vacsorát.,4,NULL,292
1431193981,3d843334c4543973704480afcc040497,AcceptabilityJudgment,115,0,tf35,37,undefined
1431193981,3d843334c4543973704480afcc040497,AcceptabilityJudgment,115,0,tf35,37,A rendőrök a ház mellett álltak meg.,6,NULL,480
1431193981,3d843334c4543973704480afcc040497,AcceptabilityJudgment,169,0,f21,NULL,undefined
1431193981,3d843334c4543973704480afcc040497,AcceptabilityJudgment,169,0,f21,NULL,Egy könyvet adnak a gyerekek Marinak.,3,NULL,270
1431193981,3d843334c4543973704480afcc040497,AcceptabilityJudgment,136,0,tf42,44,undefined
1431193981,3d843334c4543973704480afcc040497,AcceptabilityJudgment,136,0,tf42,44,Tegnap ment haza István az iskolából.,1,NULL,421
1431193981,3d843334c4543973704480afcc040497,AcceptabilityJudgment,168,0,f20,NULL,undefined
1431193981,3d843334c4543973704480afcc040497,AcceptabilityJudgment,168,0,f20,NULL,János ivott meg egy korsóval tegnap este.,2,NULL,1956
1431193981,3d843334c4543973704480afcc040497,AcceptabilityJudgment,127,0,tf39,41,undefined
1431193981,3d843334c4543973704480afcc040497,AcceptabilityJudgment,127,0,tf39,41,János ivott meg egy korsóval a vacsorán.,2,NULL,642
1431193981,3d843334c4543973704480afcc040497,AcceptabilityJudgment,145,0,tf45,47,undefined
1431193981,3d843334c4543973704480afcc040497,AcceptabilityJudgment,145,0,tf45,47,Imre és Juli látta sajátmagát a tévében.,2,NULL,490
1431193981,3d843334c4543973704480afcc040497,AcceptabilityJudgment,149,0,f01,NULL,undefined
1431193981,3d843334c4543973704480afcc040497,AcceptabilityJudgment,149,0,f01,NULL,Két gyerek adnak egy könyvet Marinak.,2,NULL,399
1431193981,3d843334c4543973704480afcc040497,AcceptabilityJudgment,94,0,t-A1-jul-dat-obj-2,30,undefined
1431193981,3d843334c4543973704480afcc040497,AcceptabilityJudgment,94,0,t-A1-jul-dat-obj-2,30,Juli találta az írónak regényét.,3,NULL,341
1431193981,3d843334c4543973704480afcc040497,AcceptabilityJudgment,174,0,f26,NULL,undefined
1431193981,3d843334c4543973704480afcc040497,AcceptabilityJudgment,174,0,f26,NULL,Maritól futott el a kutya.,1,NULL,358
1431193981,3d843334c4543973704480afcc040497,AcceptabilityJudgment,10,0,t-A1-mar-dat-obj-2,2,undefined
1431193981,3d843334c4543973704480afcc040497,AcceptabilityJudgment,10,0,t-A1-mar-dat-obj-2,2,Mari olvasta Petőfinek versét.,1,NULL,375
1431193981,3d843334c4543973704480afcc040497,AcceptabilityJudgment,25,0,t-A1-pet-dat-sbj-2,7,undefined
1431193981,3d843334c4543973704480afcc040497,AcceptabilityJudgment,25,0,t-A1-pet-dat-sbj-2,7,Péter ismert a szomszédnak lányát.,1,NULL,287
1431193981,3d843334c4543973704480afcc040497,AcceptabilityJudgment,170,0,f22,NULL,undefined
1431193981,3d843334c4543973704480afcc040497,AcceptabilityJudgment,170,0,f22,NULL,Marinak adnak egy könyvet a gyerekek.,1,NULL,1051
1431193981,3d843334c4543973704480afcc040497,AcceptabilityJudgment,70,0,t-A1-pet-dat-obj-2,22,undefined
1431193981,3d843334c4543973704480afcc040497,AcceptabilityJudgment,70,0,t-A1-pet-dat-obj-2,22,Péter ismerte a szomszédnak lányát.,2,NULL,541
1431193981,3d843334c4543973704480afcc040497,AcceptabilityJudgment,67,0,t-A1-pet-dat-sbj-2,21,undefined
1431193981,3d843334c4543973704480afcc040497,AcceptabilityJudgment,67,0,t-A1-pet-dat-sbj-2,21,Péter ismert a szomszédnak lányát.,4,NULL,339
1431193981,3d843334c4543973704480afcc040497,AcceptabilityJudgment,159,0,f11,NULL,undefined
1431193981,3d843334c4543973704480afcc040497,AcceptabilityJudgment,159,0,f11,NULL,János ivott egy korsóval meg tegnap este.,5,NULL,253
1431193981,3d843334c4543973704480afcc040497,AcceptabilityJudgment,91,0,t-A1-jul-dat-sbj-2,29,undefined
1431193981,3d843334c4543973704480afcc040497,AcceptabilityJudgment,91,0,t-A1-jul-dat-sbj-2,29,Juli talált az írónak regényét.,6,NULL,366
1431193981,3d843334c4543973704480afcc040497,AcceptabilityJudgment,161,0,f13,NULL,undefined
1431193981,3d843334c4543973704480afcc040497,AcceptabilityJudgment,161,0,f13,NULL,Tegnap ment a nagyfőnök haza a börtönből.,3,NULL,278
1431193981,3d843334c4543973704480afcc040497,AcceptabilityJudgment,58,0,t-A1-mar-dat-obj-2,18,undefined
1431193981,3d843334c4543973704480afcc040497,AcceptabilityJudgment,58,0,t-A1-mar-dat-obj-2,18,Mari olvasta Petőfinek versét.,1,NULL,303
1431193981,3d843334c4543973704480afcc040497,AcceptabilityJudgment,118,0,tf36,38,undefined
1431193981,3d843334c4543973704480afcc040497,AcceptabilityJudgment,118,0,tf36,38,Az együttes befejez a koncertet.,1,NULL,275
1431193981,3d843334c4543973704480afcc040497,AcceptabilityJudgment,155,0,f07,NULL,undefined
1431193981,3d843334c4543973704480afcc040497,AcceptabilityJudgment,155,0,f07,NULL,Megállnak a rendőr a ház.,1,NULL,1624
1431193981,3d843334c4543973704480afcc040497,AcceptabilityJudgment,28,0,t-A1-pet-dat-obj-2,8,undefined
1431193981,3d843334c4543973704480afcc040497,AcceptabilityJudgment,28,0,t-A1-pet-dat-obj-2,8,Péter ismerte a szomszédnak lányát.,2,NULL,613
1431193981,3d843334c4543973704480afcc040497,AcceptabilityJudgment,163,0,f15,NULL,undefined
1431193981,3d843334c4543973704480afcc040497,AcceptabilityJudgment,163,0,f15,NULL,Cirmi nagyobb volt mint a macskaajtó széles.,1,NULL,504
1431193981,3d843334c4543973704480afcc040497,AcceptabilityJudgment,73,0,t-A1-pet-dat-sbj-2,23,undefined
1431193981,3d843334c4543973704480afcc040497,AcceptabilityJudgment,73,0,t-A1-pet-dat-sbj-2,23,Péter ismert a szomszédnak lányát.,2,NULL,318
1431193981,3d843334c4543973704480afcc040497,AcceptabilityJudgment,103,0,tf31,33,undefined
1431193981,3d843334c4543973704480afcc040497,AcceptabilityJudgment,103,0,tf31,33,Két gyerek ad egy könyvet Marinak.,1,NULL,312
1431193981,3d843334c4543973704480afcc040497,AcceptabilityJudgment,150,0,f02,NULL,undefined
1431193981,3d843334c4543973704480afcc040497,AcceptabilityJudgment,150,0,f02,NULL,Marinak adnak két gyerek egy könyvet.,2,NULL,322
1431193981,3d843334c4543973704480afcc040497,AcceptabilityJudgment,46,0,t-A1-jul-dat-obj-2,14,undefined
1431193981,3d843334c4543973704480afcc040497,AcceptabilityJudgment,46,0,t-A1-jul-dat-obj-2,14,Juli találta az írónak regényét.,3,NULL,588
1431193981,3d843334c4543973704480afcc040497,AcceptabilityJudgment,43,0,t-A1-jul-dat-sbj-2,13,undefined
1431193981,3d843334c4543973704480afcc040497,AcceptabilityJudgment,43,0,t-A1-jul-dat-sbj-2,13,Juli talált az írónak regényét.,4,NULL,383
1431193981,3d843334c4543973704480afcc040497,AcceptabilityJudgment,164,0,f16,NULL,undefined
1431193981,3d843334c4543973704480afcc040497,AcceptabilityJudgment,164,0,f16,NULL,Péter szélesebb volt mint Csaba magas.,1,NULL,503
1431193981,3d843334c4543973704480afcc040497,AcceptabilityJudgment,100,0,t-A1-jul-dat-obj-2,32,undefined
1431193981,3d843334c4543973704480afcc040497,AcceptabilityJudgment,100,0,t-A1-jul-dat-obj-2,32,Juli találta az írónak regényét.,2,NULL,380
1431193981,3d843334c4543973704480afcc040497,AcceptabilityJudgment,176,0,f28,NULL,undefined
1431193981,3d843334c4543973704480afcc040497,AcceptabilityJudgment,176,0,f28,NULL,A rendőrök a ház mellett álltak meg.,3,NULL,391
1431193981,3d843334c4543973704480afcc040497,AcceptabilityJudgment,22,0,t-A1-pet-dat-obj-2,6,undefined
1431193981,3d843334c4543973704480afcc040497,AcceptabilityJudgment,22,0,t-A1-pet-dat-obj-2,6,Péter ismerte a szomszédnak lányát.,3,NULL,403
1431193981,3d843334c4543973704480afcc040497,AcceptabilityJudgment,121,0,tf37,39,undefined
1431193981,3d843334c4543973704480afcc040497,AcceptabilityJudgment,121,0,tf37,39,Ádám a megeszi vacsora.,2,NULL,442
1431193981,3d843334c4543973704480afcc040497,AcceptabilityJudgment,167,0,f19,NULL,undefined
1431193981,3d843334c4543973704480afcc040497,AcceptabilityJudgment,167,0,f19,NULL,Tegnap ment haza a nagyfőnök a börtőnből.,1,NULL,436
1431193981,3d843334c4543973704480afcc040497,AcceptabilityJudgment,64,0,t-A1-mar-dat-obj-2,20,undefined
1431193981,3d843334c4543973704480afcc040497,AcceptabilityJudgment,64,0,t-A1-mar-dat-obj-2,20,Mari olvasta Petőfinek versét.,2,NULL,376
1431193981,3d843334c4543973704480afcc040497,AcceptabilityJudgment,172,0,f24,NULL,undefined
1431193981,3d843334c4543973704480afcc040497,AcceptabilityJudgment,172,0,f24,NULL,Az együttes befelyezi a koncertet.,1,NULL,626
#
# Results on Sunday May 10 2015 06:56:17 UTC.
# USER AGENT: Mozilla/5.0 (Linux; Android 4.4.2; SM-T311 Build/KOT49H) AppleWebKit/537.36 (KHTML, like Gecko) Version/4.0 Chrome/30.0.0.0 Safari/537.36 [FB_IAB/FB4A;FBAV/32.0.0.23.15;]
# Design number was non-random = 19
#
# Columns below this comment are as follows:
# 1. Time results were received.
# 2. MD5 hash of participant's IP address.
# 3. Controller name.
# 4. Item number.
# 5. Element number.
# 6. Type.
# 7. Group.
# 8. Field name.
# 9. Field value.
1431240978,1b6db843f7e2b391dbdd783c42baa65b,Form,1,0,intro,NULL,age,20
1431240978,1b6db843f7e2b391dbdd783c42baa65b,Form,1,0,intro,NULL,place of birth,Pest
1431240978,1b6db843f7e2b391dbdd783c42baa65b,Form,1,0,intro,NULL,residence,Pécel 
1431240978,1b6db843f7e2b391dbdd783c42baa65b,Form,1,0,intro,NULL,consent,yes
1431240978,1b6db843f7e2b391dbdd783c42baa65b,Form,1,0,intro,NULL,sex,female
# The lines below this comment are in groups of 2.
# The formats of the lines in each of these groups are as follows:
#
# Line 1:
#     Col. 1: Time results were received.
#     Col. 2: MD5 hash of participant's IP address.
#     Col. 3: Controller name.
#     Col. 4: Item number.
#     Col. 5: Element number.
#     Col. 6: Type.
#     Col. 7: Group.
#     Col. 8: Sentence (or sentence MD5).
# Line 2:
#     Col. 1: Time results were received.
#     Col. 2: MD5 hash of participant's IP address.
#     Col. 3: Controller name.
#     Col. 4: Item number.
#     Col. 5: Element number.
#     Col. 6: Type.
#     Col. 7: Group.
#     Col. 8: Question (NULL if none).
#     Col. 9: Answer.
#     Col. 10: Whether or not answer was correct (NULL if N/A).
#     Col. 11: Time taken to answer.
1431240978,1b6db843f7e2b391dbdd783c42baa65b,AcceptabilityJudgment,2,0,practice,NULL,undefined
1431240978,1b6db843f7e2b391dbdd783c42baa65b,AcceptabilityJudgment,2,0,practice,NULL,Ismerem Mari hugát.,7,NULL,15046
1431240978,1b6db843f7e2b391dbdd783c42baa65b,AcceptabilityJudgment,3,0,practice,NULL,undefined
1431240978,1b6db843f7e2b391dbdd783c42baa65b,AcceptabilityJudgment,3,0,practice,NULL,Laci látja az autót.,7,NULL,3535
1431240978,1b6db843f7e2b391dbdd783c42baa65b,AcceptabilityJudgment,4,0,practice,NULL,undefined
1431240978,1b6db843f7e2b391dbdd783c42baa65b,AcceptabilityJudgment,4,0,practice,NULL,Péter mentek haza.,1,NULL,6007
1431240978,1b6db843f7e2b391dbdd783c42baa65b,AcceptabilityJudgment,21,0,t-A1-pet-nom-obj-2,6,undefined
1431240978,1b6db843f7e2b391dbdd783c42baa65b,AcceptabilityJudgment,21,0,t-A1-pet-nom-obj-2,6,Péter ismerte a szomszéd lányát.,5,NULL,36667
1431240978,1b6db843f7e2b391dbdd783c42baa65b,AcceptabilityJudgment,102,0,t-B1-mar-nil-sbj-2,33,undefined
1431240978,1b6db843f7e2b391dbdd783c42baa65b,AcceptabilityJudgment,102,0,t-B1-mar-nil-sbj-2,33,Mari olvasott versét.,1,NULL,8423
1431240978,1b6db843f7e2b391dbdd783c42baa65b,AcceptabilityJudgment,174,0,f26,NULL,undefined
1431240978,1b6db843f7e2b391dbdd783c42baa65b,AcceptabilityJudgment,174,0,f26,NULL,Maritól futott el a kutya.,6,NULL,9103
1431240978,1b6db843f7e2b391dbdd783c42baa65b,AcceptabilityJudgment,33,0,t-A1-ada-nom-obj-2,10,undefined
1431240978,1b6db843f7e2b391dbdd783c42baa65b,AcceptabilityJudgment,33,0,t-A1-ada-nom-obj-2,10,Ádám kereste Monet tájképét.,2,NULL,11421
1431240978,1b6db843f7e2b391dbdd783c42baa65b,AcceptabilityJudgment,171,0,f23,NULL,undefined
1431240978,1b6db843f7e2b391dbdd783c42baa65b,AcceptabilityJudgment,171,0,f23,NULL,Két gyerek ad egy könyvet Marinak.,6,NULL,13004
1431240978,1b6db843f7e2b391dbdd783c42baa65b,AcceptabilityJudgment,69,0,t-B2-pet-nil-obj-n,22,undefined
1431240978,1b6db843f7e2b391dbdd783c42baa65b,AcceptabilityJudgment,69,0,t-B2-pet-nil-obj-n,22,Péter ismerte néhány lányát.,3,NULL,6617
1431240978,1b6db843f7e2b391dbdd783c42baa65b,AcceptabilityJudgment,149,0,f01,NULL,undefined
1431240978,1b6db843f7e2b391dbdd783c42baa65b,AcceptabilityJudgment,149,0,f01,NULL,Két gyerek adnak egy könyvet Marinak.,1,NULL,15428
1431240978,1b6db843f7e2b391dbdd783c42baa65b,AcceptabilityJudgment,123,0,t-B1-pet-nil-obj-2,40,undefined
1431240978,1b6db843f7e2b391dbdd783c42baa65b,AcceptabilityJudgment,123,0,t-B1-pet-nil-obj-2,40,Juli találta regényét.,1,NULL,11055
1431240978,1b6db843f7e2b391dbdd783c42baa65b,AcceptabilityJudgment,84,0,t-B2-ada-nil-sbj-m,27,undefined
1431240978,1b6db843f7e2b391dbdd783c42baa65b,AcceptabilityJudgment,84,0,t-B2-ada-nil-sbj-m,27,Ádám keresett minden tájképét.,1,NULL,6707
1431240978,1b6db843f7e2b391dbdd783c42baa65b,AcceptabilityJudgment,177,0,f29,NULL,undefined
1431240978,1b6db843f7e2b391dbdd783c42baa65b,AcceptabilityJudgment,177,0,f29,NULL,Ádám biztosan megeszi a vacsoráját.,7,NULL,6435
1431240978,1b6db843f7e2b391dbdd783c42baa65b,AcceptabilityJudgment,90,0,t-B2-jul-nil-sbj-n,29,undefined
1431240978,1b6db843f7e2b391dbdd783c42baa65b,AcceptabilityJudgment,90,0,t-B2-jul-nil-sbj-n,29,Juli talált néhány regényét.,1,NULL,10125
1431240978,1b6db843f7e2b391dbdd783c42baa65b,AcceptabilityJudgment,159,0,f11,NULL,undefined
1431240978,1b6db843f7e2b391dbdd783c42baa65b,AcceptabilityJudgment,159,0,f11,NULL,János ivott egy korsóval meg tegnap este.,2,NULL,9966
1431240978,1b6db843f7e2b391dbdd783c42baa65b,AcceptabilityJudgment,105,0,t-B1-mar-nil-obj-2,34,undefined
1431240978,1b6db843f7e2b391dbdd783c42baa65b,AcceptabilityJudgment,105,0,t-B1-mar-nil-obj-2,34,Mari olvasta versét.,1,NULL,5934
1431240978,1b6db843f7e2b391dbdd783c42baa65b,AcceptabilityJudgment,167,0,f19,NULL,undefined
1431240978,1b6db843f7e2b391dbdd783c42baa65b,AcceptabilityJudgment,167,0,f19,NULL,Tegnap ment haza a nagyfőnök a börtőnből.,2,NULL,507
1431240978,1b6db843f7e2b391dbdd783c42baa65b,AcceptabilityJudgment,45,0,t-A1-jul-nom-obj-2,14,undefined
1431240978,1b6db843f7e2b391dbdd783c42baa65b,AcceptabilityJudgment,45,0,t-A1-jul-nom-obj-2,14,Juli találta az író regényét.,1,NULL,11439
1431240978,1b6db843f7e2b391dbdd783c42baa65b,AcceptabilityJudgment,18,0,t-A1-pet-nom-sbj-2,5,undefined
1431240978,1b6db843f7e2b391dbdd783c42baa65b,AcceptabilityJudgment,18,0,t-A1-pet-nom-sbj-2,5,Péter ismert a szomszéd lányát.,1,NULL,6031
1431240978,1b6db843f7e2b391dbdd783c42baa65b,AcceptabilityJudgment,158,0,f10,NULL,undefined
1431240978,1b6db843f7e2b391dbdd783c42baa65b,AcceptabilityJudgment,158,0,f10,NULL,A vacsoráját biztosan Ádám megeszi.,1,NULL,7323
1431240978,1b6db843f7e2b391dbdd783c42baa65b,AcceptabilityJudgment,63,0,t-B2-mar-nil-obj-m,20,undefined
1431240978,1b6db843f7e2b391dbdd783c42baa65b,AcceptabilityJudgment,63,0,t-B2-mar-nil-obj-m,20,Mari olvasta minden versét.,7,NULL,4741
1431240978,1b6db843f7e2b391dbdd783c42baa65b,AcceptabilityJudgment,164,0,f16,NULL,undefined
1431240978,1b6db843f7e2b391dbdd783c42baa65b,AcceptabilityJudgment,164,0,f16,NULL,Péter szélesebb volt mint Csaba magas.,2,NULL,9647
1431240978,1b6db843f7e2b391dbdd783c42baa65b,AcceptabilityJudgment,72,0,t-B2-pet-nil-sbj-m,23,undefined
1431240978,1b6db843f7e2b391dbdd783c42baa65b,AcceptabilityJudgment,72,0,t-B2-pet-nil-sbj-m,23,Péter ismert minden lányát.,6,NULL,9272
1431240978,1b6db843f7e2b391dbdd783c42baa65b,AcceptabilityJudgment,151,0,f03,NULL,undefined
1431240978,1b6db843f7e2b391dbdd783c42baa65b,AcceptabilityJudgment,151,0,f03,NULL,A koncert az együttes befejez.,1,NULL,7297
1431240978,1b6db843f7e2b391dbdd783c42baa65b,AcceptabilityJudgment,93,0,t-B2-jul-nil-obj-n,30,undefined
1431240978,1b6db843f7e2b391dbdd783c42baa65b,AcceptabilityJudgment,93,0,t-B2-jul-nil-obj-n,30,Juli találta néhány regényét.,1,NULL,7118
1431240978,1b6db843f7e2b391dbdd783c42baa65b,AcceptabilityJudgment,108,0,t-B1-mar-nil-sbj-2,35,undefined
1431240978,1b6db843f7e2b391dbdd783c42baa65b,AcceptabilityJudgment,108,0,t-B1-mar-nil-sbj-2,35,Péter ismert lányát.,1,NULL,5197
1431240978,1b6db843f7e2b391dbdd783c42baa65b,AcceptabilityJudgment,170,0,f22,NULL,undefined
1431240978,1b6db843f7e2b391dbdd783c42baa65b,AcceptabilityJudgment,170,0,f22,NULL,Marinak adnak egy könyvet a gyerekek.,7,NULL,9018
1431240978,1b6db843f7e2b391dbdd783c42baa65b,AcceptabilityJudgment,15,0,t-A1-mar-dat-obj-2,4,undefined
1431240978,1b6db843f7e2b391dbdd783c42baa65b,AcceptabilityJudgment,15,0,t-A1-mar-dat-obj-2,4,Mari olvasta Petőfinek versét.,2,NULL,6518
1431240978,1b6db843f7e2b391dbdd783c42baa65b,AcceptabilityJudgment,172,0,f24,NULL,undefined
1431240978,1b6db843f7e2b391dbdd783c42baa65b,AcceptabilityJudgment,172,0,f24,NULL,Az együttes befelyezi a koncertet.,6,NULL,9100
1431240978,1b6db843f7e2b391dbdd783c42baa65b,AcceptabilityJudgment,75,0,t-B2-pet-nil-obj-m,24,undefined
1431240978,1b6db843f7e2b391dbdd783c42baa65b,AcceptabilityJudgment,75,0,t-B2-pet-nil-obj-m,24,Péter ismerte minden lányát.,6,NULL,10399
1431240978,1b6db843f7e2b391dbdd783c42baa65b,AcceptabilityJudgment,176,0,f28,NULL,undefined
1431240978,1b6db843f7e2b391dbdd783c42baa65b,AcceptabilityJudgment,176,0,f28,NULL,A rendőrök a ház mellett álltak meg.,5,NULL,12555
1431240978,1b6db843f7e2b391dbdd783c42baa65b,AcceptabilityJudgment,48,0,t-A1-jul-dat-sbj-2,15,undefined
1431240978,1b6db843f7e2b391dbdd783c42baa65b,AcceptabilityJudgment,48,0,t-A1-jul-dat-sbj-2,15,Juli talált az írónak regényét.,1,NULL,7482
1431240978,1b6db843f7e2b391dbdd783c42baa65b,AcceptabilityJudgment,30,0,t-A1-ada-nom-sbj-2,9,undefined
1431240978,1b6db843f7e2b391dbdd783c42baa65b,AcceptabilityJudgment,30,0,t-A1-ada-nom-sbj-2,9,Ádám keresett Monet tájképét.,2,NULL,6885
1431240978,1b6db843f7e2b391dbdd783c42baa65b,AcceptabilityJudgment,175,0,f27,NULL,undefined
1431240978,1b6db843f7e2b391dbdd783c42baa65b,AcceptabilityJudgment,175,0,f27,NULL,Megállnak a rendőrök a ház mellett.,7,NULL,6262
1431240978,1b6db843f7e2b391dbdd783c42baa65b,AcceptabilityJudgment,54,0,t-B2-mar-nil-sbj-n,17,undefined
1431240978,1b6db843f7e2b391dbdd783c42baa65b,AcceptabilityJudgment,54,0,t-B2-mar-nil-sbj-n,17,Mari olvasott néhány versét.,2,NULL,4092
1431240978,1b6db843f7e2b391dbdd783c42baa65b,AcceptabilityJudgment,166,0,f18,NULL,undefined
1431240978,1b6db843f7e2b391dbdd783c42baa65b,AcceptabilityJudgment,166,0,f18,NULL,A benzin drágább mint amilyen gyors az auto.,1,NULL,11677
1431240978,1b6db843f7e2b391dbdd783c42baa65b,AcceptabilityJudgment,24,0,t-A1-pet-dat-sbj-2,7,undefined
1431240978,1b6db843f7e2b391dbdd783c42baa65b,AcceptabilityJudgment,24,0,t-A1-pet-dat-sbj-2,7,Péter ismert a szomszédnak lányát.,1,NULL,2165
1431240978,1b6db843f7e2b391dbdd783c42baa65b,AcceptabilityJudgment,154,0,f06,NULL,undefined
1431240978,1b6db843f7e2b391dbdd783c42baa65b,AcceptabilityJudgment,154,0,f06,NULL,Elfutnak a kutya Maritól.,1,NULL,5306
1431240978,1b6db843f7e2b391dbdd783c42baa65b,AcceptabilityJudgment,9,0,t-A1-mar-nom-obj-2,2,undefined
1431240978,1b6db843f7e2b391dbdd783c42baa65b,AcceptabilityJudgment,9,0,t-A1-mar-nom-obj-2,2,Mari olvasta Petőfi versét.,7,NULL,12582
1431240978,1b6db843f7e2b391dbdd783c42baa65b,AcceptabilityJudgment,60,0,t-B2-mar-nil-sbj-m,19,undefined
1431240978,1b6db843f7e2b391dbdd783c42baa65b,AcceptabilityJudgment,60,0,t-B2-mar-nil-sbj-m,19,Mari olvasott minden versét.,1,NULL,4279
1431240978,1b6db843f7e2b391dbdd783c42baa65b,AcceptabilityJudgment,165,0,f17,NULL,undefined
1431240978,1b6db843f7e2b391dbdd783c42baa65b,AcceptabilityJudgment,165,0,f17,NULL,A bélyeg drágább mint amilyen nehéz a csomag.,5,NULL,10395
1431240978,1b6db843f7e2b391dbdd783c42baa65b,AcceptabilityJudgment,27,0,t-A1-pet-dat-obj-2,8,undefined
1431240978,1b6db843f7e2b391dbdd783c42baa65b,AcceptabilityJudgment,27,0,t-A1-pet-dat-obj-2,8,Péter ismerte a szomszédnak lányát.,2,NULL,7055
1431240978,1b6db843f7e2b391dbdd783c42baa65b,AcceptabilityJudgment,150,0,f02,NULL,undefined
1431240978,1b6db843f7e2b391dbdd783c42baa65b,AcceptabilityJudgment,150,0,f02,NULL,Marinak adnak két gyerek egy könyvet.,1,NULL,5229
1431240978,1b6db843f7e2b391dbdd783c42baa65b,AcceptabilityJudgment,12,0,t-A1-mar-dat-sbj-2,3,undefined
1431240978,1b6db843f7e2b391dbdd783c42baa65b,AcceptabilityJudgment,12,0,t-A1-mar-dat-sbj-2,3,Mari olvasott Petőfinek versét.,1,NULL,3114
1431240978,1b6db843f7e2b391dbdd783c42baa65b,AcceptabilityJudgment,169,0,f21,NULL,undefined
1431240978,1b6db843f7e2b391dbdd783c42baa65b,AcceptabilityJudgment,169,0,f21,NULL,Egy könyvet adnak a gyerekek Marinak.,4,NULL,10820
1431240978,1b6db843f7e2b391dbdd783c42baa65b,AcceptabilityJudgment,57,0,t-B2-mar-nil-obj-n,18,undefined
1431240978,1b6db843f7e2b391dbdd783c42baa65b,AcceptabilityJudgment,57,0,t-B2-mar-nil-obj-n,18,Mari olvasta néhány versét.,5,NULL,5815
1431240978,1b6db843f7e2b391dbdd783c42baa65b,AcceptabilityJudgment,117,0,t-B1-pet-nil-obj-2,38,undefined
1431240978,1b6db843f7e2b391dbdd783c42baa65b,AcceptabilityJudgment,117,0,t-B1-pet-nil-obj-2,38,Ádám kereste tájképét.,1,NULL,4720
1431240978,1b6db843f7e2b391dbdd783c42baa65b,AcceptabilityJudgment,161,0,f13,NULL,undefined
1431240978,1b6db843f7e2b391dbdd783c42baa65b,AcceptabilityJudgment,161,0,f13,NULL,Tegnap ment a nagyfőnök haza a börtönből.,4,NULL,14409
1431240978,1b6db843f7e2b391dbdd783c42baa65b,AcceptabilityJudgment,51,0,t-A1-jul-dat-obj-2,16,undefined
1431240978,1b6db843f7e2b391dbdd783c42baa65b,AcceptabilityJudgment,51,0,t-A1-jul-dat-obj-2,16,Juli találta az írónak regényét.,1,NULL,23955
1431240978,1b6db843f7e2b391dbdd783c42baa65b,AcceptabilityJudgment,156,0,f08,NULL,undefined
1431240978,1b6db843f7e2b391dbdd783c42baa65b,AcceptabilityJudgment,156,0,f08,NULL,A rendőr megállnak ház melett.,1,NULL,5347
1431240978,1b6db843f7e2b391dbdd783c42baa65b,AcceptabilityJudgment,66,0,t-B2-pet-nil-sbj-n,21,undefined
1431240978,1b6db843f7e2b391dbdd783c42baa65b,AcceptabilityJudgment,66,0,t-B2-pet-nil-sbj-n,21,Péter ismert néhány lányát.,1,NULL,4778
1431240978,1b6db843f7e2b391dbdd783c42baa65b,AcceptabilityJudgment,173,0,f25,NULL,undefined
1431240978,1b6db843f7e2b391dbdd783c42baa65b,AcceptabilityJudgment,173,0,f25,NULL,A kutya Maritól futott el.,6,NULL,7558
1431240978,1b6db843f7e2b391dbdd783c42baa65b,AcceptabilityJudgment,114,0,t-B1-pet-nil-sbj-2,37,undefined
1431240978,1b6db843f7e2b391dbdd783c42baa65b,AcceptabilityJudgment,114,0,t-B1-pet-nil-sbj-2,37,Ádám keresett tájképét.,2,NULL,6043
1431240978,1b6db843f7e2b391dbdd783c42baa65b,AcceptabilityJudgment,81,0,t-B2-ada-nil-obj-n,26,undefined
1431240978,1b6db843f7e2b391dbdd783c42baa65b,AcceptabilityJudgment,81,0,t-B2-ada-nil-obj-n,26,Ádám kereste néhány tájképét.,1,NULL,1206
1431240978,1b6db843f7e2b391dbdd783c42baa65b,AcceptabilityJudgment,155,0,f07,NULL,undefined
1431240978,1b6db843f7e2b391dbdd783c42baa65b,AcceptabilityJudgment,155,0,f07,NULL,Megállnak a rendőr a ház.,1,NULL,6807
1431240978,1b6db843f7e2b391dbdd783c42baa65b,AcceptabilityJudgment,111,0,t-B1-mar-nil-obj-2,36,undefined
1431240978,1b6db843f7e2b391dbdd783c42baa65b,AcceptabilityJudgment,111,0,t-B1-mar-nil-obj-2,36,Péter ismerte lányát.,1,NULL,11197
1431240978,1b6db843f7e2b391dbdd783c42baa65b,AcceptabilityJudgment,162,0,f14,NULL,undefined
1431240978,1b6db843f7e2b391dbdd783c42baa65b,AcceptabilityJudgment,162,0,f14,NULL,Tegnap ment a nagyfőnök a börtönből haza.,4,NULL,5578
1431240978,1b6db843f7e2b391dbdd783c42baa65b,AcceptabilityJudgment,78,0,t-B2-ada-nil-sbj-n,25,undefined
1431240978,1b6db843f7e2b391dbdd783c42baa65b,AcceptabilityJudgment,78,0,t-B2-ada-nil-sbj-n,25,Ádám keresett néhány tájképét.,2,NULL,20944
1431240978,1b6db843f7e2b391dbdd783c42baa65b,AcceptabilityJudgment,168,0,f20,NULL,undefined
1431240978,1b6db843f7e2b391dbdd783c42baa65b,AcceptabilityJudgment,168,0,f20,NULL,János ivott meg egy korsóval tegnap este.,2,NULL,10453
1431240978,1b6db843f7e2b391dbdd783c42baa65b,AcceptabilityJudgment,39,0,t-A1-ada-dat-obj-2,12,undefined
1431240978,1b6db843f7e2b391dbdd783c42baa65b,AcceptabilityJudgment,39,0,t-A1-ada-dat-obj-2,12,Ádám kereste Monetnek tájképét.,6,NULL,8386
1431240978,1b6db843f7e2b391dbdd783c42baa65b,AcceptabilityJudgment,36,0,t-A1-ada-dat-sbj-2,11,undefined
1431240978,1b6db843f7e2b391dbdd783c42baa65b,AcceptabilityJudgment,36,0,t-A1-ada-dat-sbj-2,11,Ádám keresett Monetnek tájképét.,1,NULL,4394
1431240978,1b6db843f7e2b391dbdd783c42baa65b,AcceptabilityJudgment,178,0,f30,NULL,undefined
1431240978,1b6db843f7e2b391dbdd783c42baa65b,AcceptabilityJudgment,178,0,f30,NULL,Ádám megeszi a vacsorát%2C az biztos.,7,NULL,6196
1431240978,1b6db843f7e2b391dbdd783c42baa65b,AcceptabilityJudgment,87,0,t-B2-ada-nil-obj-m,28,undefined
1431240978,1b6db843f7e2b391dbdd783c42baa65b,AcceptabilityJudgment,87,0,t-B2-ada-nil-obj-m,28,Ádám kereste minden tájképét.,6,NULL,9194
1431240978,1b6db843f7e2b391dbdd783c42baa65b,AcceptabilityJudgment,163,0,f15,NULL,undefined
1431240978,1b6db843f7e2b391dbdd783c42baa65b,AcceptabilityJudgment,163,0,f15,NULL,Cirmi nagyobb volt mint a macskaajtó széles.,5,NULL,609
1431240978,1b6db843f7e2b391dbdd783c42baa65b,AcceptabilityJudgment,120,0,t-B1-pet-nil-sbj-2,39,undefined
1431240978,1b6db843f7e2b391dbdd783c42baa65b,AcceptabilityJudgment,120,0,t-B1-pet-nil-sbj-2,39,Juli talált regényét.,1,NULL,4788
1431240978,1b6db843f7e2b391dbdd783c42baa65b,AcceptabilityJudgment,157,0,f09,NULL,undefined
1431240978,1b6db843f7e2b391dbdd783c42baa65b,AcceptabilityJudgment,157,0,f09,NULL,Ádám megeszi vacsora biztosan. ,1,NULL,3736
1431240978,1b6db843f7e2b391dbdd783c42baa65b,AcceptabilityJudgment,99,0,t-B2-jul-nil-obj-m,32,undefined
1431240978,1b6db843f7e2b391dbdd783c42baa65b,AcceptabilityJudgment,99,0,t-B2-jul-nil-obj-m,32,Juli találta minden regényét.,1,NULL,4756
1431240978,1b6db843f7e2b391dbdd783c42baa65b,AcceptabilityJudgment,6,0,t-A1-mar-nom-sbj-2,1,undefined
1431240978,1b6db843f7e2b391dbdd783c42baa65b,AcceptabilityJudgment,6,0,t-A1-mar-nom-sbj-2,1,Mari olvasott Petőfi versét.,1,NULL,2882
1431240978,1b6db843f7e2b391dbdd783c42baa65b,AcceptabilityJudgment,160,0,f12,NULL,undefined
1431240978,1b6db843f7e2b391dbdd783c42baa65b,AcceptabilityJudgment,160,0,f12,NULL,János ivott egy korsóval tegnap este meg.,1,NULL,3744
1431240978,1b6db843f7e2b391dbdd783c42baa65b,AcceptabilityJudgment,42,0,t-A1-jul-nom-sbj-2,13,undefined
1431240978,1b6db843f7e2b391dbdd783c42baa65b,AcceptabilityJudgment,42,0,t-A1-jul-nom-sbj-2,13,Juli talált az író regényét.,1,NULL,4167
1431240978,1b6db843f7e2b391dbdd783c42baa65b,AcceptabilityJudgment,152,0,f04,NULL,undefined
1431240978,1b6db843f7e2b391dbdd783c42baa65b,AcceptabilityJudgment,152,0,f04,NULL,Az együttes befejez a koncertet.,1,NULL,5418
1431240978,1b6db843f7e2b391dbdd783c42baa65b,AcceptabilityJudgment,96,0,t-B2-jul-nil-sbj-m,31,undefined
1431240978,1b6db843f7e2b391dbdd783c42baa65b,AcceptabilityJudgment,96,0,t-B2-jul-nil-sbj-m,31,Juli talált minden regényét.,1,NULL,3480
1431240978,1b6db843f7e2b391dbdd783c42baa65b,AcceptabilityJudgment,153,0,f05,NULL,undefined
1431240978,1b6db843f7e2b391dbdd783c42baa65b,AcceptabilityJudgment,153,0,f05,NULL,A kutya elfutott Marinak.,1,NULL,3986
#
# Results on Sunday May 10 2015 07:09:08 UTC.
# USER AGENT: Mozilla/5.0 (Windows NT 6.1; WOW64) AppleWebKit/537.36 (KHTML, like Gecko) Chrome/42.0.2311.135 Safari/537.36
# Design number was non-random = 19
#
# Columns below this comment are as follows:
# 1. Time results were received.
# 2. MD5 hash of participant's IP address.
# 3. Controller name.
# 4. Item number.
# 5. Element number.
# 6. Type.
# 7. Group.
# 8. Field name.
# 9. Field value.
1431241749,d6613d19ed772fbe24a4eeb68635848c,Form,1,0,intro,NULL,age,22
1431241749,d6613d19ed772fbe24a4eeb68635848c,Form,1,0,intro,NULL,place of birth,Budapest
1431241749,d6613d19ed772fbe24a4eeb68635848c,Form,1,0,intro,NULL,residence,Vecsés
1431241749,d6613d19ed772fbe24a4eeb68635848c,Form,1,0,intro,NULL,consent,yes
1431241749,d6613d19ed772fbe24a4eeb68635848c,Form,1,0,intro,NULL,sex,female
# The lines below this comment are in groups of 2.
# The formats of the lines in each of these groups are as follows:
#
# Line 1:
#     Col. 1: Time results were received.
#     Col. 2: MD5 hash of participant's IP address.
#     Col. 3: Controller name.
#     Col. 4: Item number.
#     Col. 5: Element number.
#     Col. 6: Type.
#     Col. 7: Group.
#     Col. 8: Sentence (or sentence MD5).
# Line 2:
#     Col. 1: Time results were received.
#     Col. 2: MD5 hash of participant's IP address.
#     Col. 3: Controller name.
#     Col. 4: Item number.
#     Col. 5: Element number.
#     Col. 6: Type.
#     Col. 7: Group.
#     Col. 8: Question (NULL if none).
#     Col. 9: Answer.
#     Col. 10: Whether or not answer was correct (NULL if N/A).
#     Col. 11: Time taken to answer.
1431241749,d6613d19ed772fbe24a4eeb68635848c,AcceptabilityJudgment,2,0,practice,NULL,undefined
1431241749,d6613d19ed772fbe24a4eeb68635848c,AcceptabilityJudgment,2,0,practice,NULL,Ismerem Mari hugát.,5,NULL,8733
1431241749,d6613d19ed772fbe24a4eeb68635848c,AcceptabilityJudgment,3,0,practice,NULL,undefined
1431241749,d6613d19ed772fbe24a4eeb68635848c,AcceptabilityJudgment,3,0,practice,NULL,Laci látja az autót.,4,NULL,11832
1431241749,d6613d19ed772fbe24a4eeb68635848c,AcceptabilityJudgment,4,0,practice,NULL,undefined
1431241749,d6613d19ed772fbe24a4eeb68635848c,AcceptabilityJudgment,4,0,practice,NULL,Péter mentek haza.,1,NULL,4727
1431241749,d6613d19ed772fbe24a4eeb68635848c,AcceptabilityJudgment,63,0,t-B2-mar-nil-obj-m,20,undefined
1431241749,d6613d19ed772fbe24a4eeb68635848c,AcceptabilityJudgment,63,0,t-B2-mar-nil-obj-m,20,Mari olvasta minden versét.,5,NULL,4242
1431241749,d6613d19ed772fbe24a4eeb68635848c,AcceptabilityJudgment,155,0,f07,NULL,undefined
1431241749,d6613d19ed772fbe24a4eeb68635848c,AcceptabilityJudgment,155,0,f07,NULL,Megállnak a rendőr a ház.,1,NULL,2925
1431241749,d6613d19ed772fbe24a4eeb68635848c,AcceptabilityJudgment,108,0,t-B1-mar-nil-sbj-2,35,undefined
1431241749,d6613d19ed772fbe24a4eeb68635848c,AcceptabilityJudgment,108,0,t-B1-mar-nil-sbj-2,35,Péter ismert lányát.,1,NULL,2592
1431241749,d6613d19ed772fbe24a4eeb68635848c,AcceptabilityJudgment,171,0,f23,NULL,undefined
1431241749,d6613d19ed772fbe24a4eeb68635848c,AcceptabilityJudgment,171,0,f23,NULL,Két gyerek ad egy könyvet Marinak.,5,NULL,5971
1431241749,d6613d19ed772fbe24a4eeb68635848c,AcceptabilityJudgment,75,0,t-B2-pet-nil-obj-m,24,undefined
1431241749,d6613d19ed772fbe24a4eeb68635848c,AcceptabilityJudgment,75,0,t-B2-pet-nil-obj-m,24,Péter ismerte minden lányát.,7,NULL,2060
1431241749,d6613d19ed772fbe24a4eeb68635848c,AcceptabilityJudgment,161,0,f13,NULL,undefined
1431241749,d6613d19ed772fbe24a4eeb68635848c,AcceptabilityJudgment,161,0,f13,NULL,Tegnap ment a nagyfőnök haza a börtönből.,7,NULL,4835
1431241749,d6613d19ed772fbe24a4eeb68635848c,AcceptabilityJudgment,18,0,t-A1-pet-nom-sbj-2,5,undefined
1431241749,d6613d19ed772fbe24a4eeb68635848c,AcceptabilityJudgment,18,0,t-A1-pet-nom-sbj-2,5,Péter ismert a szomszéd lányát.,1,NULL,3350
1431241749,d6613d19ed772fbe24a4eeb68635848c,AcceptabilityJudgment,6,0,t-A1-mar-nom-sbj-2,1,undefined
1431241749,d6613d19ed772fbe24a4eeb68635848c,AcceptabilityJudgment,6,0,t-A1-mar-nom-sbj-2,1,Mari olvasott Petőfi versét.,1,NULL,4445
1431241749,d6613d19ed772fbe24a4eeb68635848c,AcceptabilityJudgment,151,0,f03,NULL,undefined
1431241749,d6613d19ed772fbe24a4eeb68635848c,AcceptabilityJudgment,151,0,f03,NULL,A koncert az együttes befejez.,1,NULL,2095
1431241749,d6613d19ed772fbe24a4eeb68635848c,AcceptabilityJudgment,72,0,t-B2-pet-nil-sbj-m,23,undefined
1431241749,d6613d19ed772fbe24a4eeb68635848c,AcceptabilityJudgment,72,0,t-B2-pet-nil-sbj-m,23,Péter ismert minden lányát.,1,NULL,1834
1431241749,d6613d19ed772fbe24a4eeb68635848c,AcceptabilityJudgment,169,0,f21,NULL,undefined
1431241749,d6613d19ed772fbe24a4eeb68635848c,AcceptabilityJudgment,169,0,f21,NULL,Egy könyvet adnak a gyerekek Marinak.,1,NULL,2738
1431241749,d6613d19ed772fbe24a4eeb68635848c,AcceptabilityJudgment,78,0,t-B2-ada-nil-sbj-n,25,undefined
1431241749,d6613d19ed772fbe24a4eeb68635848c,AcceptabilityJudgment,78,0,t-B2-ada-nil-sbj-n,25,Ádám keresett néhány tájképét.,1,NULL,3022
1431241749,d6613d19ed772fbe24a4eeb68635848c,AcceptabilityJudgment,168,0,f20,NULL,undefined
1431241749,d6613d19ed772fbe24a4eeb68635848c,AcceptabilityJudgment,168,0,f20,NULL,János ivott meg egy korsóval tegnap este.,5,NULL,6284
1431241749,d6613d19ed772fbe24a4eeb68635848c,AcceptabilityJudgment,84,0,t-B2-ada-nil-sbj-m,27,undefined
1431241749,d6613d19ed772fbe24a4eeb68635848c,AcceptabilityJudgment,84,0,t-B2-ada-nil-sbj-m,27,Ádám keresett minden tájképét.,1,NULL,2724
1431241749,d6613d19ed772fbe24a4eeb68635848c,AcceptabilityJudgment,111,0,t-B1-mar-nil-obj-2,36,undefined
1431241749,d6613d19ed772fbe24a4eeb68635848c,AcceptabilityJudgment,111,0,t-B1-mar-nil-obj-2,36,Péter ismerte lányát.,6,NULL,2627
1431241749,d6613d19ed772fbe24a4eeb68635848c,AcceptabilityJudgment,153,0,f05,NULL,undefined
1431241749,d6613d19ed772fbe24a4eeb68635848c,AcceptabilityJudgment,153,0,f05,NULL,A kutya elfutott Marinak.,4,NULL,3340
1431241749,d6613d19ed772fbe24a4eeb68635848c,AcceptabilityJudgment,81,0,t-B2-ada-nil-obj-n,26,undefined
1431241749,d6613d19ed772fbe24a4eeb68635848c,AcceptabilityJudgment,81,0,t-B2-ada-nil-obj-n,26,Ádám kereste néhány tájképét.,3,NULL,3124
1431241749,d6613d19ed772fbe24a4eeb68635848c,AcceptabilityJudgment,177,0,f29,NULL,undefined
1431241749,d6613d19ed772fbe24a4eeb68635848c,AcceptabilityJudgment,177,0,f29,NULL,Ádám biztosan megeszi a vacsoráját.,5,NULL,3278
1431241749,d6613d19ed772fbe24a4eeb68635848c,AcceptabilityJudgment,12,0,t-A1-mar-dat-sbj-2,3,undefined
1431241749,d6613d19ed772fbe24a4eeb68635848c,AcceptabilityJudgment,12,0,t-A1-mar-dat-sbj-2,3,Mari olvasott Petőfinek versét.,1,NULL,3617
1431241749,d6613d19ed772fbe24a4eeb68635848c,AcceptabilityJudgment,154,0,f06,NULL,undefined
1431241749,d6613d19ed772fbe24a4eeb68635848c,AcceptabilityJudgment,154,0,f06,NULL,Elfutnak a kutya Maritól.,1,NULL,2084
1431241749,d6613d19ed772fbe24a4eeb68635848c,AcceptabilityJudgment,99,0,t-B2-jul-nil-obj-m,32,undefined
1431241749,d6613d19ed772fbe24a4eeb68635848c,AcceptabilityJudgment,99,0,t-B2-jul-nil-obj-m,32,Juli találta minden regényét.,1,NULL,4412
1431241749,d6613d19ed772fbe24a4eeb68635848c,AcceptabilityJudgment,48,0,t-A1-jul-dat-sbj-2,15,undefined
1431241749,d6613d19ed772fbe24a4eeb68635848c,AcceptabilityJudgment,48,0,t-A1-jul-dat-sbj-2,15,Juli talált az írónak regényét.,1,NULL,3277
1431241749,d6613d19ed772fbe24a4eeb68635848c,AcceptabilityJudgment,172,0,f24,NULL,undefined
1431241749,d6613d19ed772fbe24a4eeb68635848c,AcceptabilityJudgment,172,0,f24,NULL,Az együttes befelyezi a koncertet.,7,NULL,2930
1431241749,d6613d19ed772fbe24a4eeb68635848c,AcceptabilityJudgment,30,0,t-A1-ada-nom-sbj-2,9,undefined
1431241749,d6613d19ed772fbe24a4eeb68635848c,AcceptabilityJudgment,30,0,t-A1-ada-nom-sbj-2,9,Ádám keresett Monet tájképét.,1,NULL,5109
1431241749,d6613d19ed772fbe24a4eeb68635848c,AcceptabilityJudgment,158,0,f10,NULL,undefined
1431241749,d6613d19ed772fbe24a4eeb68635848c,AcceptabilityJudgment,158,0,f10,NULL,A vacsoráját biztosan Ádám megeszi.,1,NULL,3121
1431241749,d6613d19ed772fbe24a4eeb68635848c,AcceptabilityJudgment,21,0,t-A1-pet-nom-obj-2,6,undefined
1431241749,d6613d19ed772fbe24a4eeb68635848c,AcceptabilityJudgment,21,0,t-A1-pet-nom-obj-2,6,Péter ismerte a szomszéd lányát.,7,NULL,3292
1431241749,d6613d19ed772fbe24a4eeb68635848c,AcceptabilityJudgment,164,0,f16,NULL,undefined
1431241749,d6613d19ed772fbe24a4eeb68635848c,AcceptabilityJudgment,164,0,f16,NULL,Péter szélesebb volt mint Csaba magas.,1,NULL,3546
1431241749,d6613d19ed772fbe24a4eeb68635848c,AcceptabilityJudgment,114,0,t-B1-pet-nil-sbj-2,37,undefined
1431241749,d6613d19ed772fbe24a4eeb68635848c,AcceptabilityJudgment,114,0,t-B1-pet-nil-sbj-2,37,Ádám keresett tájképét.,1,NULL,1785
1431241749,d6613d19ed772fbe24a4eeb68635848c,AcceptabilityJudgment,57,0,t-B2-mar-nil-obj-n,18,undefined
1431241749,d6613d19ed772fbe24a4eeb68635848c,AcceptabilityJudgment,57,0,t-B2-mar-nil-obj-n,18,Mari olvasta néhány versét.,6,NULL,2863
1431241749,d6613d19ed772fbe24a4eeb68635848c,AcceptabilityJudgment,174,0,f26,NULL,undefined
1431241749,d6613d19ed772fbe24a4eeb68635848c,AcceptabilityJudgment,174,0,f26,NULL,Maritól futott el a kutya.,6,NULL,2339
1431241749,d6613d19ed772fbe24a4eeb68635848c,AcceptabilityJudgment,93,0,t-B2-jul-nil-obj-n,30,undefined
1431241749,d6613d19ed772fbe24a4eeb68635848c,AcceptabilityJudgment,93,0,t-B2-jul-nil-obj-n,30,Juli találta néhány regényét.,1,NULL,2633
1431241749,d6613d19ed772fbe24a4eeb68635848c,AcceptabilityJudgment,162,0,f14,NULL,undefined
1431241749,d6613d19ed772fbe24a4eeb68635848c,AcceptabilityJudgment,162,0,f14,NULL,Tegnap ment a nagyfőnök a börtönből haza.,6,NULL,5021
1431241749,d6613d19ed772fbe24a4eeb68635848c,AcceptabilityJudgment,69,0,t-B2-pet-nil-obj-n,22,undefined
1431241749,d6613d19ed772fbe24a4eeb68635848c,AcceptabilityJudgment,69,0,t-B2-pet-nil-obj-n,22,Péter ismerte néhány lányát.,6,NULL,3012
1431241749,d6613d19ed772fbe24a4eeb68635848c,AcceptabilityJudgment,170,0,f22,NULL,undefined
1431241749,d6613d19ed772fbe24a4eeb68635848c,AcceptabilityJudgment,170,0,f22,NULL,Marinak adnak egy könyvet a gyerekek.,6,NULL,2965
1431241749,d6613d19ed772fbe24a4eeb68635848c,AcceptabilityJudgment,117,0,t-B1-pet-nil-obj-2,38,undefined
1431241749,d6613d19ed772fbe24a4eeb68635848c,AcceptabilityJudgment,117,0,t-B1-pet-nil-obj-2,38,Ádám kereste tájképét.,5,NULL,3784
1431241749,d6613d19ed772fbe24a4eeb68635848c,AcceptabilityJudgment,45,0,t-A1-jul-nom-obj-2,14,undefined
1431241749,d6613d19ed772fbe24a4eeb68635848c,AcceptabilityJudgment,45,0,t-A1-jul-nom-obj-2,14,Juli találta az író regényét.,5,NULL,7104
1431241749,d6613d19ed772fbe24a4eeb68635848c,AcceptabilityJudgment,166,0,f18,NULL,undefined
1431241749,d6613d19ed772fbe24a4eeb68635848c,AcceptabilityJudgment,166,0,f18,NULL,A benzin drágább mint amilyen gyors az auto.,5,NULL,2711
1431241749,d6613d19ed772fbe24a4eeb68635848c,AcceptabilityJudgment,39,0,t-A1-ada-dat-obj-2,12,undefined
1431241749,d6613d19ed772fbe24a4eeb68635848c,AcceptabilityJudgment,39,0,t-A1-ada-dat-obj-2,12,Ádám kereste Monetnek tájképét.,3,NULL,2940
1431241749,d6613d19ed772fbe24a4eeb68635848c,AcceptabilityJudgment,156,0,f08,NULL,undefined
1431241749,d6613d19ed772fbe24a4eeb68635848c,AcceptabilityJudgment,156,0,f08,NULL,A rendőr megállnak ház melett.,1,NULL,3263
1431241749,d6613d19ed772fbe24a4eeb68635848c,AcceptabilityJudgment,9,0,t-A1-mar-nom-obj-2,2,undefined
1431241749,d6613d19ed772fbe24a4eeb68635848c,AcceptabilityJudgment,9,0,t-A1-mar-nom-obj-2,2,Mari olvasta Petőfi versét.,7,NULL,3776
1431241749,d6613d19ed772fbe24a4eeb68635848c,AcceptabilityJudgment,150,0,f02,NULL,undefined
1431241749,d6613d19ed772fbe24a4eeb68635848c,AcceptabilityJudgment,150,0,f02,NULL,Marinak adnak két gyerek egy könyvet.,1,NULL,2947
1431241749,d6613d19ed772fbe24a4eeb68635848c,AcceptabilityJudgment,105,0,t-B1-mar-nil-obj-2,34,undefined
1431241749,d6613d19ed772fbe24a4eeb68635848c,AcceptabilityJudgment,105,0,t-B1-mar-nil-obj-2,34,Mari olvasta versét.,7,NULL,3012
1431241749,d6613d19ed772fbe24a4eeb68635848c,AcceptabilityJudgment,90,0,t-B2-jul-nil-sbj-n,29,undefined
1431241749,d6613d19ed772fbe24a4eeb68635848c,AcceptabilityJudgment,90,0,t-B2-jul-nil-sbj-n,29,Juli talált néhány regényét.,1,NULL,4237
1431241749,d6613d19ed772fbe24a4eeb68635848c,AcceptabilityJudgment,173,0,f25,NULL,undefined
1431241749,d6613d19ed772fbe24a4eeb68635848c,AcceptabilityJudgment,173,0,f25,NULL,A kutya Maritól futott el.,7,NULL,3197
1431241749,d6613d19ed772fbe24a4eeb68635848c,AcceptabilityJudgment,102,0,t-B1-mar-nil-sbj-2,33,undefined
1431241749,d6613d19ed772fbe24a4eeb68635848c,AcceptabilityJudgment,102,0,t-B1-mar-nil-sbj-2,33,Mari olvasott versét.,1,NULL,3435
1431241749,d6613d19ed772fbe24a4eeb68635848c,AcceptabilityJudgment,176,0,f28,NULL,undefined
1431241749,d6613d19ed772fbe24a4eeb68635848c,AcceptabilityJudgment,176,0,f28,NULL,A rendőrök a ház mellett álltak meg.,7,NULL,3326
1431241749,d6613d19ed772fbe24a4eeb68635848c,AcceptabilityJudgment,66,0,t-B2-pet-nil-sbj-n,21,undefined
1431241749,d6613d19ed772fbe24a4eeb68635848c,AcceptabilityJudgment,66,0,t-B2-pet-nil-sbj-n,21,Péter ismert néhány lányát.,1,NULL,3681
1431241749,d6613d19ed772fbe24a4eeb68635848c,AcceptabilityJudgment,159,0,f11,NULL,undefined
1431241749,d6613d19ed772fbe24a4eeb68635848c,AcceptabilityJudgment,159,0,f11,NULL,János ivott egy korsóval meg tegnap este.,5,NULL,6802
1431241749,d6613d19ed772fbe24a4eeb68635848c,AcceptabilityJudgment,60,0,t-B2-mar-nil-sbj-m,19,undefined
1431241749,d6613d19ed772fbe24a4eeb68635848c,AcceptabilityJudgment,60,0,t-B2-mar-nil-sbj-m,19,Mari olvasott minden versét.,1,NULL,3452
1431241749,d6613d19ed772fbe24a4eeb68635848c,AcceptabilityJudgment,87,0,t-B2-ada-nil-obj-m,28,undefined
1431241749,d6613d19ed772fbe24a4eeb68635848c,AcceptabilityJudgment,87,0,t-B2-ada-nil-obj-m,28,Ádám kereste minden tájképét.,6,NULL,4760
1431241749,d6613d19ed772fbe24a4eeb68635848c,AcceptabilityJudgment,165,0,f17,NULL,undefined
1431241749,d6613d19ed772fbe24a4eeb68635848c,AcceptabilityJudgment,165,0,f17,NULL,A bélyeg drágább mint amilyen nehéz a csomag.,5,NULL,3864
1431241749,d6613d19ed772fbe24a4eeb68635848c,AcceptabilityJudgment,27,0,t-A1-pet-dat-obj-2,8,undefined
1431241749,d6613d19ed772fbe24a4eeb68635848c,AcceptabilityJudgment,27,0,t-A1-pet-dat-obj-2,8,Péter ismerte a szomszédnak lányát.,5,NULL,3191
1431241749,d6613d19ed772fbe24a4eeb68635848c,AcceptabilityJudgment,152,0,f04,NULL,undefined
1431241749,d6613d19ed772fbe24a4eeb68635848c,AcceptabilityJudgment,152,0,f04,NULL,Az együttes befejez a koncertet.,1,NULL,2408
1431241749,d6613d19ed772fbe24a4eeb68635848c,AcceptabilityJudgment,24,0,t-A1-pet-dat-sbj-2,7,undefined
1431241749,d6613d19ed772fbe24a4eeb68635848c,AcceptabilityJudgment,24,0,t-A1-pet-dat-sbj-2,7,Péter ismert a szomszédnak lányát.,1,NULL,2622
1431241749,d6613d19ed772fbe24a4eeb68635848c,AcceptabilityJudgment,178,0,f30,NULL,undefined
1431241749,d6613d19ed772fbe24a4eeb68635848c,AcceptabilityJudgment,178,0,f30,NULL,Ádám megeszi a vacsorát%2C az biztos.,6,NULL,3310
1431241749,d6613d19ed772fbe24a4eeb68635848c,AcceptabilityJudgment,120,0,t-B1-pet-nil-sbj-2,39,undefined
1431241749,d6613d19ed772fbe24a4eeb68635848c,AcceptabilityJudgment,120,0,t-B1-pet-nil-sbj-2,39,Juli talált regényét.,1,NULL,3749
1431241749,d6613d19ed772fbe24a4eeb68635848c,AcceptabilityJudgment,33,0,t-A1-ada-nom-obj-2,10,undefined
1431241749,d6613d19ed772fbe24a4eeb68635848c,AcceptabilityJudgment,33,0,t-A1-ada-nom-obj-2,10,Ádám kereste Monet tájképét.,6,NULL,5235
1431241749,d6613d19ed772fbe24a4eeb68635848c,AcceptabilityJudgment,160,0,f12,NULL,undefined
1431241749,d6613d19ed772fbe24a4eeb68635848c,AcceptabilityJudgment,160,0,f12,NULL,János ivott egy korsóval tegnap este meg.,6,NULL,3078
1431241749,d6613d19ed772fbe24a4eeb68635848c,AcceptabilityJudgment,42,0,t-A1-jul-nom-sbj-2,13,undefined
1431241749,d6613d19ed772fbe24a4eeb68635848c,AcceptabilityJudgment,42,0,t-A1-jul-nom-sbj-2,13,Juli talált az író regényét.,1,NULL,4246
1431241749,d6613d19ed772fbe24a4eeb68635848c,AcceptabilityJudgment,175,0,f27,NULL,undefined
1431241749,d6613d19ed772fbe24a4eeb68635848c,AcceptabilityJudgment,175,0,f27,NULL,Megállnak a rendőrök a ház mellett.,6,NULL,2892
1431241749,d6613d19ed772fbe24a4eeb68635848c,AcceptabilityJudgment,36,0,t-A1-ada-dat-sbj-2,11,undefined
1431241749,d6613d19ed772fbe24a4eeb68635848c,AcceptabilityJudgment,36,0,t-A1-ada-dat-sbj-2,11,Ádám keresett Monetnek tájképét.,1,NULL,2947
1431241749,d6613d19ed772fbe24a4eeb68635848c,AcceptabilityJudgment,149,0,f01,NULL,undefined
1431241749,d6613d19ed772fbe24a4eeb68635848c,AcceptabilityJudgment,149,0,f01,NULL,Két gyerek adnak egy könyvet Marinak.,1,NULL,4742
1431241749,d6613d19ed772fbe24a4eeb68635848c,AcceptabilityJudgment,54,0,t-B2-mar-nil-sbj-n,17,undefined
1431241749,d6613d19ed772fbe24a4eeb68635848c,AcceptabilityJudgment,54,0,t-B2-mar-nil-sbj-n,17,Mari olvasott néhány versét.,1,NULL,3167
1431241749,d6613d19ed772fbe24a4eeb68635848c,AcceptabilityJudgment,15,0,t-A1-mar-dat-obj-2,4,undefined
1431241749,d6613d19ed772fbe24a4eeb68635848c,AcceptabilityJudgment,15,0,t-A1-mar-dat-obj-2,4,Mari olvasta Petőfinek versét.,5,NULL,3512
1431241749,d6613d19ed772fbe24a4eeb68635848c,AcceptabilityJudgment,157,0,f09,NULL,undefined
1431241749,d6613d19ed772fbe24a4eeb68635848c,AcceptabilityJudgment,157,0,f09,NULL,Ádám megeszi vacsora biztosan. ,1,NULL,2219
1431241749,d6613d19ed772fbe24a4eeb68635848c,AcceptabilityJudgment,51,0,t-A1-jul-dat-obj-2,16,undefined
1431241749,d6613d19ed772fbe24a4eeb68635848c,AcceptabilityJudgment,51,0,t-A1-jul-dat-obj-2,16,Juli találta az írónak regényét.,5,NULL,3512
1431241749,d6613d19ed772fbe24a4eeb68635848c,AcceptabilityJudgment,167,0,f19,NULL,undefined
1431241749,d6613d19ed772fbe24a4eeb68635848c,AcceptabilityJudgment,167,0,f19,NULL,Tegnap ment haza a nagyfőnök a börtőnből.,7,NULL,3398
1431241749,d6613d19ed772fbe24a4eeb68635848c,AcceptabilityJudgment,96,0,t-B2-jul-nil-sbj-m,31,undefined
1431241749,d6613d19ed772fbe24a4eeb68635848c,AcceptabilityJudgment,96,0,t-B2-jul-nil-sbj-m,31,Juli talált minden regényét.,1,NULL,3455
1431241749,d6613d19ed772fbe24a4eeb68635848c,AcceptabilityJudgment,163,0,f15,NULL,undefined
1431241749,d6613d19ed772fbe24a4eeb68635848c,AcceptabilityJudgment,163,0,f15,NULL,Cirmi nagyobb volt mint a macskaajtó széles.,1,NULL,12266
1431241749,d6613d19ed772fbe24a4eeb68635848c,AcceptabilityJudgment,123,0,t-B1-pet-nil-obj-2,40,undefined
1431241749,d6613d19ed772fbe24a4eeb68635848c,AcceptabilityJudgment,123,0,t-B1-pet-nil-obj-2,40,Juli találta regényét.,1,NULL,1970
#
# Results on Sunday May 10 2015 08:28:40 UTC.
# USER AGENT: Mozilla/5.0 (Linux; Android 4.4.2; GT-I9506 Build/KOT49H) AppleWebKit/537.36 (KHTML, like Gecko) Version/4.0 Chrome/30.0.0.0 Mobile Safari/537.36 [FB_IAB/FB4A;FBAV/32.0.0.23.15;]
# Design number was non-random = 21
#
# Columns below this comment are as follows:
# 1. Time results were received.
# 2. MD5 hash of participant's IP address.
# 3. Controller name.
# 4. Item number.
# 5. Element number.
# 6. Type.
# 7. Group.
# 8. Field name.
# 9. Field value.
1431246521,b821736a345266622a8196b73b38e6f4,Form,1,0,intro,NULL,age,24
1431246521,b821736a345266622a8196b73b38e6f4,Form,1,0,intro,NULL,place of birth,Bács-Kiskun
1431246521,b821736a345266622a8196b73b38e6f4,Form,1,0,intro,NULL,residence,Kecskemét
1431246521,b821736a345266622a8196b73b38e6f4,Form,1,0,intro,NULL,consent,yes
1431246521,b821736a345266622a8196b73b38e6f4,Form,1,0,intro,NULL,sex,female
# The lines below this comment are in groups of 2.
# The formats of the lines in each of these groups are as follows:
#
# Line 1:
#     Col. 1: Time results were received.
#     Col. 2: MD5 hash of participant's IP address.
#     Col. 3: Controller name.
#     Col. 4: Item number.
#     Col. 5: Element number.
#     Col. 6: Type.
#     Col. 7: Group.
#     Col. 8: Sentence (or sentence MD5).
# Line 2:
#     Col. 1: Time results were received.
#     Col. 2: MD5 hash of participant's IP address.
#     Col. 3: Controller name.
#     Col. 4: Item number.
#     Col. 5: Element number.
#     Col. 6: Type.
#     Col. 7: Group.
#     Col. 8: Question (NULL if none).
#     Col. 9: Answer.
#     Col. 10: Whether or not answer was correct (NULL if N/A).
#     Col. 11: Time taken to answer.
1431246521,b821736a345266622a8196b73b38e6f4,AcceptabilityJudgment,2,0,practice,NULL,undefined
1431246521,b821736a345266622a8196b73b38e6f4,AcceptabilityJudgment,2,0,practice,NULL,Ismerem Mari hugát.,7,NULL,8210
1431246521,b821736a345266622a8196b73b38e6f4,AcceptabilityJudgment,3,0,practice,NULL,undefined
1431246521,b821736a345266622a8196b73b38e6f4,AcceptabilityJudgment,3,0,practice,NULL,Laci látja az autót.,7,NULL,2834
1431246521,b821736a345266622a8196b73b38e6f4,AcceptabilityJudgment,4,0,practice,NULL,undefined
1431246521,b821736a345266622a8196b73b38e6f4,AcceptabilityJudgment,4,0,practice,NULL,Péter mentek haza.,1,NULL,8297
1431246521,b821736a345266622a8196b73b38e6f4,AcceptabilityJudgment,53,0,t-A2-mar-ext-sbj-2,17,undefined
1431246521,b821736a345266622a8196b73b38e6f4,AcceptabilityJudgment,53,0,t-A2-mar-ext-sbj-2,17,Mari csak Petőfinek olvasott versét.,1,NULL,10408
1431246521,b821736a345266622a8196b73b38e6f4,AcceptabilityJudgment,101,0,t-B1-mar-nil-sbj-2,33,undefined
1431246521,b821736a345266622a8196b73b38e6f4,AcceptabilityJudgment,101,0,t-B1-mar-nil-sbj-2,33,Mari olvasott versét,1,NULL,3330
1431246521,b821736a345266622a8196b73b38e6f4,AcceptabilityJudgment,164,0,f16,NULL,undefined
1431246521,b821736a345266622a8196b73b38e6f4,AcceptabilityJudgment,164,0,f16,NULL,Péter szélesebb volt mint Csaba magas.,1,NULL,5226
1431246521,b821736a345266622a8196b73b38e6f4,AcceptabilityJudgment,47,0,t-A1-jul-dat-sbj-2,15,undefined
1431246521,b821736a345266622a8196b73b38e6f4,AcceptabilityJudgment,47,0,t-A1-jul-dat-sbj-2,15,Juli talált az írónak regényét.,1,NULL,11454
1431246521,b821736a345266622a8196b73b38e6f4,AcceptabilityJudgment,168,0,f20,NULL,undefined
1431246521,b821736a345266622a8196b73b38e6f4,AcceptabilityJudgment,168,0,f20,NULL,János ivott meg egy korsóval tegnap este.,1,NULL,7162
1431246521,b821736a345266622a8196b73b38e6f4,AcceptabilityJudgment,50,0,t-A1-jul-dat-obj-2,16,undefined
1431246521,b821736a345266622a8196b73b38e6f4,AcceptabilityJudgment,50,0,t-A1-jul-dat-obj-2,16,Juli találta az írónak regényét.,1,NULL,7830
1431246521,b821736a345266622a8196b73b38e6f4,AcceptabilityJudgment,162,0,f14,NULL,undefined
1431246521,b821736a345266622a8196b73b38e6f4,AcceptabilityJudgment,162,0,f14,NULL,Tegnap ment a nagyfőnök a börtönből haza.,5,NULL,5749
1431246521,b821736a345266622a8196b73b38e6f4,AcceptabilityJudgment,26,0,t-A1-pet-dat-obj-2,8,undefined
1431246521,b821736a345266622a8196b73b38e6f4,AcceptabilityJudgment,26,0,t-A1-pet-dat-obj-2,8,Péter ismerte a szomszédnak lányát.,1,NULL,6786
1431246521,b821736a345266622a8196b73b38e6f4,AcceptabilityJudgment,23,0,t-A1-pet-dat-sbj-2,7,undefined
1431246521,b821736a345266622a8196b73b38e6f4,AcceptabilityJudgment,23,0,t-A1-pet-dat-sbj-2,7,Péter ismert a szomszédnak lányát.,1,NULL,3759
1431246521,b821736a345266622a8196b73b38e6f4,AcceptabilityJudgment,170,0,f22,NULL,undefined
1431246521,b821736a345266622a8196b73b38e6f4,AcceptabilityJudgment,170,0,f22,NULL,Marinak adnak egy könyvet a gyerekek.,5,NULL,7344
1431246521,b821736a345266622a8196b73b38e6f4,AcceptabilityJudgment,8,0,t-A1-mar-nom-obj-2,2,undefined
1431246521,b821736a345266622a8196b73b38e6f4,AcceptabilityJudgment,8,0,t-A1-mar-nom-obj-2,2,Mari olvasta Petőfi versét.,7,NULL,6503
1431246521,b821736a345266622a8196b73b38e6f4,AcceptabilityJudgment,171,0,f23,NULL,undefined
1431246521,b821736a345266622a8196b73b38e6f4,AcceptabilityJudgment,171,0,f23,NULL,Két gyerek ad egy könyvet Marinak.,6,NULL,6504
1431246521,b821736a345266622a8196b73b38e6f4,AcceptabilityJudgment,17,0,t-A1-pet-nom-sbj-2,5,undefined
1431246521,b821736a345266622a8196b73b38e6f4,AcceptabilityJudgment,17,0,t-A1-pet-nom-sbj-2,5,Péter ismert a szomszéd lányát.,1,NULL,3418
1431246521,b821736a345266622a8196b73b38e6f4,AcceptabilityJudgment,157,0,f09,NULL,undefined
1431246521,b821736a345266622a8196b73b38e6f4,AcceptabilityJudgment,157,0,f09,NULL,Ádám megeszi vacsora biztosan. ,2,NULL,25570
1431246521,b821736a345266622a8196b73b38e6f4,AcceptabilityJudgment,110,0,t-B1-mar-nil-obj-2,36,undefined
1431246521,b821736a345266622a8196b73b38e6f4,AcceptabilityJudgment,110,0,t-B1-mar-nil-obj-2,36,Péter ismerte lányát.,2,NULL,6518
1431246521,b821736a345266622a8196b73b38e6f4,AcceptabilityJudgment,14,0,t-A1-mar-dat-obj-2,4,undefined
1431246521,b821736a345266622a8196b73b38e6f4,AcceptabilityJudgment,14,0,t-A1-mar-dat-obj-2,4,Mari olvasta Petőfinek versét.,2,NULL,7118
1431246521,b821736a345266622a8196b73b38e6f4,AcceptabilityJudgment,151,0,f03,NULL,undefined
1431246521,b821736a345266622a8196b73b38e6f4,AcceptabilityJudgment,151,0,f03,NULL,A koncert az együttes befejez.,1,NULL,2657
1431246521,b821736a345266622a8196b73b38e6f4,AcceptabilityJudgment,86,0,t-A2-ada-int-obj-2,28,undefined
1431246521,b821736a345266622a8196b73b38e6f4,AcceptabilityJudgment,86,0,t-A2-ada-int-obj-2,28,Ádám csak Monetnek tájképét kereste.,2,NULL,6008
1431246521,b821736a345266622a8196b73b38e6f4,AcceptabilityJudgment,178,0,f30,NULL,undefined
1431246521,b821736a345266622a8196b73b38e6f4,AcceptabilityJudgment,178,0,f30,NULL,Ádám megeszi a vacsorát%2C az biztos.,7,NULL,4859
1431246521,b821736a345266622a8196b73b38e6f4,AcceptabilityJudgment,98,0,t-A2-jul-int-obj-2,32,undefined
1431246521,b821736a345266622a8196b73b38e6f4,AcceptabilityJudgment,98,0,t-A2-jul-int-obj-2,32,Juli csak az írónak regényét találta.,2,NULL,7269
1431246521,b821736a345266622a8196b73b38e6f4,AcceptabilityJudgment,166,0,f18,NULL,undefined
1431246521,b821736a345266622a8196b73b38e6f4,AcceptabilityJudgment,166,0,f18,NULL,A benzin drágább mint amilyen gyors az auto.,1,NULL,7513
1431246521,b821736a345266622a8196b73b38e6f4,AcceptabilityJudgment,89,0,t-A2-jul-ext-sbj-2,29,undefined
1431246521,b821736a345266622a8196b73b38e6f4,AcceptabilityJudgment,89,0,t-A2-jul-ext-sbj-2,29,Juli csak az írónak talált regényét.,1,NULL,6709
1431246521,b821736a345266622a8196b73b38e6f4,AcceptabilityJudgment,35,0,t-A1-ada-dat-sbj-2,11,undefined
1431246521,b821736a345266622a8196b73b38e6f4,AcceptabilityJudgment,35,0,t-A1-ada-dat-sbj-2,11,Ádám keresett Monetnek tájképét.,1,NULL,3194
1431246521,b821736a345266622a8196b73b38e6f4,AcceptabilityJudgment,176,0,f28,NULL,undefined
1431246521,b821736a345266622a8196b73b38e6f4,AcceptabilityJudgment,176,0,f28,NULL,A rendőrök a ház mellett álltak meg.,7,NULL,6956
1431246521,b821736a345266622a8196b73b38e6f4,AcceptabilityJudgment,44,0,t-A1-jul-nom-obj-2,14,undefined
1431246521,b821736a345266622a8196b73b38e6f4,AcceptabilityJudgment,44,0,t-A1-jul-nom-obj-2,14,Juli találta az író regényét.,4,NULL,6818
1431246521,b821736a345266622a8196b73b38e6f4,AcceptabilityJudgment,163,0,f15,NULL,undefined
1431246521,b821736a345266622a8196b73b38e6f4,AcceptabilityJudgment,163,0,f15,NULL,Cirmi nagyobb volt mint a macskaajtó széles.,1,NULL,4521
1431246521,b821736a345266622a8196b73b38e6f4,AcceptabilityJudgment,95,0,t-A2-jul-int-sbj-2,31,undefined
1431246521,b821736a345266622a8196b73b38e6f4,AcceptabilityJudgment,95,0,t-A2-jul-int-sbj-2,31,Juli csak az írónak regényét talált.,1,NULL,3276
1431246521,b821736a345266622a8196b73b38e6f4,AcceptabilityJudgment,156,0,f08,NULL,undefined
1431246521,b821736a345266622a8196b73b38e6f4,AcceptabilityJudgment,156,0,f08,NULL,A rendőr megállnak ház melett.,1,NULL,3126
1431246521,b821736a345266622a8196b73b38e6f4,AcceptabilityJudgment,122,0,t-B1-pet-nil-obj-2,40,undefined
1431246521,b821736a345266622a8196b73b38e6f4,AcceptabilityJudgment,122,0,t-B1-pet-nil-obj-2,40,Juli találta regényét.,1,NULL,5031
1431246521,b821736a345266622a8196b73b38e6f4,AcceptabilityJudgment,80,0,t-A2-ada-ext-obj-2,26,undefined
1431246521,b821736a345266622a8196b73b38e6f4,AcceptabilityJudgment,80,0,t-A2-ada-ext-obj-2,26,Ádám csak Monetnek kereste tájképét.,1,NULL,3421
1431246521,b821736a345266622a8196b73b38e6f4,AcceptabilityJudgment,153,0,f05,NULL,undefined
1431246521,b821736a345266622a8196b73b38e6f4,AcceptabilityJudgment,153,0,f05,NULL,A kutya elfutott Marinak.,1,NULL,2328
1431246521,b821736a345266622a8196b73b38e6f4,AcceptabilityJudgment,20,0,t-A1-pet-nom-obj-2,6,undefined
1431246521,b821736a345266622a8196b73b38e6f4,AcceptabilityJudgment,20,0,t-A1-pet-nom-obj-2,6,Péter ismerte a szomszéd lányát.,7,NULL,3125
1431246521,b821736a345266622a8196b73b38e6f4,AcceptabilityJudgment,172,0,f24,NULL,undefined
1431246521,b821736a345266622a8196b73b38e6f4,AcceptabilityJudgment,172,0,f24,NULL,Az együttes befelyezi a koncertet.,7,NULL,13252
1431246521,b821736a345266622a8196b73b38e6f4,AcceptabilityJudgment,113,0,t-B1-pet-nil-sbj-2,37,undefined
1431246521,b821736a345266622a8196b73b38e6f4,AcceptabilityJudgment,113,0,t-B1-pet-nil-sbj-2,37,Ádám keresett tájképét.,1,NULL,5638
1431246521,b821736a345266622a8196b73b38e6f4,AcceptabilityJudgment,158,0,f10,NULL,undefined
1431246521,b821736a345266622a8196b73b38e6f4,AcceptabilityJudgment,158,0,f10,NULL,A vacsoráját biztosan Ádám megeszi.,4,NULL,6742
1431246521,b821736a345266622a8196b73b38e6f4,AcceptabilityJudgment,74,0,t-A2-pet-int-obj-2,24,undefined
1431246521,b821736a345266622a8196b73b38e6f4,AcceptabilityJudgment,74,0,t-A2-pet-int-obj-2,24,Péter csak a szomszédnak lányát ismerte.,2,NULL,6206
1431246521,b821736a345266622a8196b73b38e6f4,AcceptabilityJudgment,56,0,t-A2-mar-ext-obj-2,18,undefined
1431246521,b821736a345266622a8196b73b38e6f4,AcceptabilityJudgment,56,0,t-A2-mar-ext-obj-2,18,Mari csak Petőfinek olvasta versét.,4,NULL,4371
1431246521,b821736a345266622a8196b73b38e6f4,AcceptabilityJudgment,154,0,f06,NULL,undefined
1431246521,b821736a345266622a8196b73b38e6f4,AcceptabilityJudgment,154,0,f06,NULL,Elfutnak a kutya Maritól.,1,NULL,3114
1431246521,b821736a345266622a8196b73b38e6f4,AcceptabilityJudgment,116,0,t-B1-pet-nil-obj-2,38,undefined
1431246521,b821736a345266622a8196b73b38e6f4,AcceptabilityJudgment,116,0,t-B1-pet-nil-obj-2,38,Ádám kereste tájképét.,1,NULL,1121
1431246521,b821736a345266622a8196b73b38e6f4,AcceptabilityJudgment,169,0,f21,NULL,undefined
1431246521,b821736a345266622a8196b73b38e6f4,AcceptabilityJudgment,169,0,f21,NULL,Egy könyvet adnak a gyerekek Marinak.,7,NULL,12731
1431246521,b821736a345266622a8196b73b38e6f4,AcceptabilityJudgment,65,0,t-A2-pet-ext-sbj-2,21,undefined
1431246521,b821736a345266622a8196b73b38e6f4,AcceptabilityJudgment,65,0,t-A2-pet-ext-sbj-2,21,Péter csak a szomszédnak ismert lányát.,1,NULL,5595
1431246521,b821736a345266622a8196b73b38e6f4,AcceptabilityJudgment,175,0,f27,NULL,undefined
1431246521,b821736a345266622a8196b73b38e6f4,AcceptabilityJudgment,175,0,f27,NULL,Megállnak a rendőrök a ház mellett.,7,NULL,34060
1431246521,b821736a345266622a8196b73b38e6f4,AcceptabilityJudgment,29,0,t-A1-ada-nom-sbj-2,9,undefined
1431246521,b821736a345266622a8196b73b38e6f4,AcceptabilityJudgment,29,0,t-A1-ada-nom-sbj-2,9,Ádám keresett Monet tájképét.,1,NULL,4892
1431246521,b821736a345266622a8196b73b38e6f4,AcceptabilityJudgment,83,0,t-A2-ada-int-sbj-2,27,undefined
1431246521,b821736a345266622a8196b73b38e6f4,AcceptabilityJudgment,83,0,t-A2-ada-int-sbj-2,27,Ádám csak Monetnek tájképét keresett.,1,NULL,3639
1431246521,b821736a345266622a8196b73b38e6f4,AcceptabilityJudgment,165,0,f17,NULL,undefined
1431246521,b821736a345266622a8196b73b38e6f4,AcceptabilityJudgment,165,0,f17,NULL,A bélyeg drágább mint amilyen nehéz a csomag.,4,NULL,6114
1431246521,b821736a345266622a8196b73b38e6f4,AcceptabilityJudgment,68,0,t-A2-pet-ext-obj-2,22,undefined
1431246521,b821736a345266622a8196b73b38e6f4,AcceptabilityJudgment,68,0,t-A2-pet-ext-obj-2,22,Péter csak a szomszédnak ismerte lányát.,2,NULL,6134
1431246521,b821736a345266622a8196b73b38e6f4,AcceptabilityJudgment,152,0,f04,NULL,undefined
1431246521,b821736a345266622a8196b73b38e6f4,AcceptabilityJudgment,152,0,f04,NULL,Az együttes befejez a koncertet.,1,NULL,3883
1431246521,b821736a345266622a8196b73b38e6f4,AcceptabilityJudgment,77,0,t-A2-ada-ext-sbj-2,25,undefined
1431246521,b821736a345266622a8196b73b38e6f4,AcceptabilityJudgment,77,0,t-A2-ada-ext-sbj-2,25,Ádám csak Monetnek keresett tájképét.,1,NULL,12636
1431246521,b821736a345266622a8196b73b38e6f4,AcceptabilityJudgment,149,0,f01,NULL,undefined
1431246521,b821736a345266622a8196b73b38e6f4,AcceptabilityJudgment,149,0,f01,NULL,Két gyerek adnak egy könyvet Marinak.,1,NULL,3911
1431246521,b821736a345266622a8196b73b38e6f4,AcceptabilityJudgment,92,0,t-A2-jul-ext-obj-2,30,undefined
1431246521,b821736a345266622a8196b73b38e6f4,AcceptabilityJudgment,92,0,t-A2-jul-ext-obj-2,30,Juli csak az írónak találta regényét.,2,NULL,3966
1431246521,b821736a345266622a8196b73b38e6f4,AcceptabilityJudgment,41,0,t-A1-jul-nom-sbj-2,13,undefined
1431246521,b821736a345266622a8196b73b38e6f4,AcceptabilityJudgment,41,0,t-A1-jul-nom-sbj-2,13,Juli talált az író regényét.,1,NULL,2749
1431246521,b821736a345266622a8196b73b38e6f4,AcceptabilityJudgment,173,0,f25,NULL,undefined
1431246521,b821736a345266622a8196b73b38e6f4,AcceptabilityJudgment,173,0,f25,NULL,A kutya Maritól futott el.,7,NULL,3141
1431246521,b821736a345266622a8196b73b38e6f4,AcceptabilityJudgment,62,0,t-A2-mar-int-obj-2,20,undefined
1431246521,b821736a345266622a8196b73b38e6f4,AcceptabilityJudgment,62,0,t-A2-mar-int-obj-2,20,Mari csak Petőfinek versét olvasta.,2,NULL,4790
1431246521,b821736a345266622a8196b73b38e6f4,AcceptabilityJudgment,150,0,f02,NULL,undefined
1431246521,b821736a345266622a8196b73b38e6f4,AcceptabilityJudgment,150,0,f02,NULL,Marinak adnak két gyerek egy könyvet.,1,NULL,2850
1431246521,b821736a345266622a8196b73b38e6f4,AcceptabilityJudgment,38,0,t-A1-ada-dat-obj-2,12,undefined
1431246521,b821736a345266622a8196b73b38e6f4,AcceptabilityJudgment,38,0,t-A1-ada-dat-obj-2,12,Ádám kereste Monetnek tájképét.,2,NULL,4104
1431246521,b821736a345266622a8196b73b38e6f4,AcceptabilityJudgment,155,0,f07,NULL,undefined
1431246521,b821736a345266622a8196b73b38e6f4,AcceptabilityJudgment,155,0,f07,NULL,Megállnak a rendőr a ház.,1,NULL,3735
1431246521,b821736a345266622a8196b73b38e6f4,AcceptabilityJudgment,107,0,t-B1-mar-nil-sbj-2,35,undefined
1431246521,b821736a345266622a8196b73b38e6f4,AcceptabilityJudgment,107,0,t-B1-mar-nil-sbj-2,35,Péter ismert lányát.,2,NULL,4568
1431246521,b821736a345266622a8196b73b38e6f4,AcceptabilityJudgment,5,0,t-A1-mar-nom-sbj-2,1,undefined
1431246521,b821736a345266622a8196b73b38e6f4,AcceptabilityJudgment,5,0,t-A1-mar-nom-sbj-2,1,Mari olvasott Petőfi versét.,1,NULL,5130
1431246521,b821736a345266622a8196b73b38e6f4,AcceptabilityJudgment,160,0,f12,NULL,undefined
1431246521,b821736a345266622a8196b73b38e6f4,AcceptabilityJudgment,160,0,f12,NULL,János ivott egy korsóval tegnap este meg.,1,NULL,3917
1431246521,b821736a345266622a8196b73b38e6f4,AcceptabilityJudgment,104,0,t-B1-mar-nil-obj-2,34,undefined
1431246521,b821736a345266622a8196b73b38e6f4,AcceptabilityJudgment,104,0,t-B1-mar-nil-obj-2,34,Mari olvasta versét.,7,NULL,2748
1431246521,b821736a345266622a8196b73b38e6f4,AcceptabilityJudgment,177,0,f29,NULL,undefined
1431246521,b821736a345266622a8196b73b38e6f4,AcceptabilityJudgment,177,0,f29,NULL,Ádám biztosan megeszi a vacsoráját.,7,NULL,4697
1431246521,b821736a345266622a8196b73b38e6f4,AcceptabilityJudgment,71,0,t-A2-pet-int-sbj-2,23,undefined
1431246521,b821736a345266622a8196b73b38e6f4,AcceptabilityJudgment,71,0,t-A2-pet-int-sbj-2,23,Péter csak a szomszédnak lányát ismert.,1,NULL,5452
1431246521,b821736a345266622a8196b73b38e6f4,AcceptabilityJudgment,159,0,f11,NULL,undefined
1431246521,b821736a345266622a8196b73b38e6f4,AcceptabilityJudgment,159,0,f11,NULL,János ivott egy korsóval meg tegnap este.,1,NULL,5019
1431246521,b821736a345266622a8196b73b38e6f4,AcceptabilityJudgment,32,0,t-A1-ada-nom-obj-2,10,undefined
1431246521,b821736a345266622a8196b73b38e6f4,AcceptabilityJudgment,32,0,t-A1-ada-nom-obj-2,10,Ádám kereste Monet tájképét.,7,NULL,15942
1431246521,b821736a345266622a8196b73b38e6f4,AcceptabilityJudgment,59,0,t-A2-mar-int-sbj-2,19,undefined
1431246521,b821736a345266622a8196b73b38e6f4,AcceptabilityJudgment,59,0,t-A2-mar-int-sbj-2,19,Mari csak Petőfinek versét olvasott.,1,NULL,3741
1431246521,b821736a345266622a8196b73b38e6f4,AcceptabilityJudgment,174,0,f26,NULL,undefined
1431246521,b821736a345266622a8196b73b38e6f4,AcceptabilityJudgment,174,0,f26,NULL,Maritól futott el a kutya.,7,NULL,2570
1431246521,b821736a345266622a8196b73b38e6f4,AcceptabilityJudgment,119,0,t-B1-pet-nil-sbj-2,39,undefined
1431246521,b821736a345266622a8196b73b38e6f4,AcceptabilityJudgment,119,0,t-B1-pet-nil-sbj-2,39,Juli talált regényét.,1,NULL,6094
1431246521,b821736a345266622a8196b73b38e6f4,AcceptabilityJudgment,167,0,f19,NULL,undefined
1431246521,b821736a345266622a8196b73b38e6f4,AcceptabilityJudgment,167,0,f19,NULL,Tegnap ment haza a nagyfőnök a börtőnből.,7,NULL,3495
1431246521,b821736a345266622a8196b73b38e6f4,AcceptabilityJudgment,11,0,t-A1-mar-dat-sbj-2,3,undefined
1431246521,b821736a345266622a8196b73b38e6f4,AcceptabilityJudgment,11,0,t-A1-mar-dat-sbj-2,3,Mari olvasott Petőfinek versét.,1,NULL,6612
1431246521,b821736a345266622a8196b73b38e6f4,AcceptabilityJudgment,161,0,f13,NULL,undefined
1431246521,b821736a345266622a8196b73b38e6f4,AcceptabilityJudgment,161,0,f13,NULL,Tegnap ment a nagyfőnök haza a börtönből.,7,NULL,6689
#
# Results on Sunday May 10 2015 09:22:15 UTC.
# USER AGENT: Mozilla/5.0 (Linux; Android 5.0.2; D5803 Build/23.1.A.0.726; wv) AppleWebKit/537.36 (KHTML, like Gecko) Version/4.0 Chrome/42.0.2311.137 Mobile Safari/537.36 [FB_IAB/FB4A;FBAV/32.0.0.23.15;]
# Design number was non-random = 22
#
# Columns below this comment are as follows:
# 1. Time results were received.
# 2. MD5 hash of participant's IP address.
# 3. Controller name.
# 4. Item number.
# 5. Element number.
# 6. Type.
# 7. Group.
# 8. Field name.
# 9. Field value.
1431249736,0836920a9e0905b4541a85e0b0aac6aa,Form,1,0,intro,NULL,age,28
1431249736,0836920a9e0905b4541a85e0b0aac6aa,Form,1,0,intro,NULL,place of birth,Zala
1431249736,0836920a9e0905b4541a85e0b0aac6aa,Form,1,0,intro,NULL,residence,Nagykanizsa
1431249736,0836920a9e0905b4541a85e0b0aac6aa,Form,1,0,intro,NULL,consent,yes
1431249736,0836920a9e0905b4541a85e0b0aac6aa,Form,1,0,intro,NULL,sex,female
# The lines below this comment are in groups of 2.
# The formats of the lines in each of these groups are as follows:
#
# Line 1:
#     Col. 1: Time results were received.
#     Col. 2: MD5 hash of participant's IP address.
#     Col. 3: Controller name.
#     Col. 4: Item number.
#     Col. 5: Element number.
#     Col. 6: Type.
#     Col. 7: Group.
#     Col. 8: Sentence (or sentence MD5).
# Line 2:
#     Col. 1: Time results were received.
#     Col. 2: MD5 hash of participant's IP address.
#     Col. 3: Controller name.
#     Col. 4: Item number.
#     Col. 5: Element number.
#     Col. 6: Type.
#     Col. 7: Group.
#     Col. 8: Question (NULL if none).
#     Col. 9: Answer.
#     Col. 10: Whether or not answer was correct (NULL if N/A).
#     Col. 11: Time taken to answer.
1431249736,0836920a9e0905b4541a85e0b0aac6aa,AcceptabilityJudgment,2,0,practice,NULL,undefined
1431249736,0836920a9e0905b4541a85e0b0aac6aa,AcceptabilityJudgment,2,0,practice,NULL,Ismerem Mari hugát.,7,NULL,21886
1431249736,0836920a9e0905b4541a85e0b0aac6aa,AcceptabilityJudgment,3,0,practice,NULL,undefined
1431249736,0836920a9e0905b4541a85e0b0aac6aa,AcceptabilityJudgment,3,0,practice,NULL,Laci látja az autót.,4,NULL,8403
1431249736,0836920a9e0905b4541a85e0b0aac6aa,AcceptabilityJudgment,4,0,practice,NULL,undefined
1431249736,0836920a9e0905b4541a85e0b0aac6aa,AcceptabilityJudgment,4,0,practice,NULL,Péter mentek haza.,1,NULL,4535
1431249736,0836920a9e0905b4541a85e0b0aac6aa,AcceptabilityJudgment,123,0,t-B1-pet-nil-obj-2,40,undefined
1431249736,0836920a9e0905b4541a85e0b0aac6aa,AcceptabilityJudgment,123,0,t-B1-pet-nil-obj-2,40,Juli találta regényét.,1,NULL,6661
1431249736,0836920a9e0905b4541a85e0b0aac6aa,AcceptabilityJudgment,54,0,t-B2-mar-nil-sbj-n,17,undefined
1431249736,0836920a9e0905b4541a85e0b0aac6aa,AcceptabilityJudgment,54,0,t-B2-mar-nil-sbj-n,17,Mari olvasott néhány versét.,1,NULL,9768
1431249736,0836920a9e0905b4541a85e0b0aac6aa,AcceptabilityJudgment,152,0,f04,NULL,undefined
1431249736,0836920a9e0905b4541a85e0b0aac6aa,AcceptabilityJudgment,152,0,f04,NULL,Az együttes befejez a koncertet.,1,NULL,10548
1431249736,0836920a9e0905b4541a85e0b0aac6aa,AcceptabilityJudgment,6,0,t-A1-mar-nom-sbj-2,1,undefined
1431249736,0836920a9e0905b4541a85e0b0aac6aa,AcceptabilityJudgment,6,0,t-A1-mar-nom-sbj-2,1,Mari olvasott Petőfi versét.,1,NULL,15775
1431249736,0836920a9e0905b4541a85e0b0aac6aa,AcceptabilityJudgment,170,0,f22,NULL,undefined
1431249736,0836920a9e0905b4541a85e0b0aac6aa,AcceptabilityJudgment,170,0,f22,NULL,Marinak adnak egy könyvet a gyerekek.,7,NULL,4436
1431249736,0836920a9e0905b4541a85e0b0aac6aa,AcceptabilityJudgment,93,0,t-B2-jul-nil-obj-n,30,undefined
1431249736,0836920a9e0905b4541a85e0b0aac6aa,AcceptabilityJudgment,93,0,t-B2-jul-nil-obj-n,30,Juli találta néhány regényét.,1,NULL,6583
1431249736,0836920a9e0905b4541a85e0b0aac6aa,AcceptabilityJudgment,160,0,f12,NULL,undefined
1431249736,0836920a9e0905b4541a85e0b0aac6aa,AcceptabilityJudgment,160,0,f12,NULL,János ivott egy korsóval tegnap este meg.,1,NULL,10805
1431249736,0836920a9e0905b4541a85e0b0aac6aa,AcceptabilityJudgment,102,0,t-B1-mar-nil-sbj-2,33,undefined
1431249736,0836920a9e0905b4541a85e0b0aac6aa,AcceptabilityJudgment,102,0,t-B1-mar-nil-sbj-2,33,Mari olvasott versét.,3,NULL,7170
1431249736,0836920a9e0905b4541a85e0b0aac6aa,AcceptabilityJudgment,18,0,t-A1-pet-nom-sbj-2,5,undefined
1431249736,0836920a9e0905b4541a85e0b0aac6aa,AcceptabilityJudgment,18,0,t-A1-pet-nom-sbj-2,5,Péter ismert a szomszéd lányát.,1,NULL,22701
1431249736,0836920a9e0905b4541a85e0b0aac6aa,AcceptabilityJudgment,178,0,f30,NULL,undefined
