
#
# Results on Tuesday April 07 2015 12:58:07 UTC.
# USER AGENT: Mozilla/5.0 (Linux; Android 4.4.4; D2203 Build/18.5.C.0.19) AppleWebKit/537.36 (KHTML, like Gecko) Version/4.0 Chrome/33.0.0.0 Mobile Safari/537.36 [FB_IAB/FB4A;FBAV/29.0.0.23.13;]
# Design number was non-random = 33
#
# Columns below this comment are as follows:
# 1. Time results were received.
# 2. MD5 hash of participant's IP address.
# 3. Controller name.
# 4. Item number.
# 5. Element number.
# 6. Type.
# 7. Group.
# 8. Field name.
# 9. Field value.
1428411488,c78977df29b7a9a012844c5904f09cfa,Form,1,0,intro,NULL,age,34
1428411488,c78977df29b7a9a012844c5904f09cfa,Form,1,0,intro,NULL,place of birth,Nógrád 
1428411488,c78977df29b7a9a012844c5904f09cfa,Form,1,0,intro,NULL,residence,Salgótarján 
1428411488,c78977df29b7a9a012844c5904f09cfa,Form,1,0,intro,NULL,consent,yes
1428411488,c78977df29b7a9a012844c5904f09cfa,Form,1,0,intro,NULL,sex,female
# The lines below this comment are in groups of 2.
# The formats of the lines in each of these groups are as follows:
#
# Line 1:
#     Col. 1: Time results were received.
#     Col. 2: MD5 hash of participant's IP address.
#     Col. 3: Controller name.
#     Col. 4: Item number.
#     Col. 5: Element number.
#     Col. 6: Type.
#     Col. 7: Group.
#     Col. 8: Sentence (or sentence MD5).
# Line 2:
#     Col. 1: Time results were received.
#     Col. 2: MD5 hash of participant's IP address.
#     Col. 3: Controller name.
#     Col. 4: Item number.
#     Col. 5: Element number.
#     Col. 6: Type.
#     Col. 7: Group.
#     Col. 8: Question (NULL if none).
#     Col. 9: Answer.
#     Col. 10: Whether or not answer was correct (NULL if N/A).
#     Col. 11: Time taken to answer.
1428411488,c78977df29b7a9a012844c5904f09cfa,AcceptabilityJudgment,2,0,practice,NULL,undefined
1428411488,c78977df29b7a9a012844c5904f09cfa,AcceptabilityJudgment,2,0,practice,NULL,NULL,7,NULL,9580
1428411488,c78977df29b7a9a012844c5904f09cfa,AcceptabilityJudgment,3,0,practice,NULL,undefined
1428411488,c78977df29b7a9a012844c5904f09cfa,AcceptabilityJudgment,3,0,practice,NULL,NULL,7,NULL,1548
1428411488,c78977df29b7a9a012844c5904f09cfa,AcceptabilityJudgment,4,0,practice,NULL,undefined
1428411488,c78977df29b7a9a012844c5904f09cfa,AcceptabilityJudgment,4,0,practice,NULL,NULL,7,NULL,4022
1428411488,c78977df29b7a9a012844c5904f09cfa,AcceptabilityJudgment,59,0,t-B2-pet-ext-sbj,19,undefined
1428411488,c78977df29b7a9a012844c5904f09cfa,AcceptabilityJudgment,59,0,t-B2-pet-ext-sbj,19,NULL,1,NULL,5187
1428411488,c78977df29b7a9a012844c5904f09cfa,AcceptabilityJudgment,122,0,t-A1-jul-dat-obj,40,undefined
1428411488,c78977df29b7a9a012844c5904f09cfa,AcceptabilityJudgment,122,0,t-A1-jul-dat-obj,40,NULL,3,NULL,6617
1428411488,c78977df29b7a9a012844c5904f09cfa,AcceptabilityJudgment,148,0,filler,NULL,undefined
1428411488,c78977df29b7a9a012844c5904f09cfa,AcceptabilityJudgment,148,0,filler,NULL,NULL,7,NULL,2531
1428411488,c78977df29b7a9a012844c5904f09cfa,AcceptabilityJudgment,86,0,t-A1-mar-dat-obj,28,undefined
1428411488,c78977df29b7a9a012844c5904f09cfa,AcceptabilityJudgment,86,0,t-A1-mar-dat-obj,28,NULL,1,NULL,3472
1428411488,c78977df29b7a9a012844c5904f09cfa,AcceptabilityJudgment,116,0,t-A1-jul-nom-obj,38,undefined
1428411488,c78977df29b7a9a012844c5904f09cfa,AcceptabilityJudgment,116,0,t-A1-jul-nom-obj,38,NULL,3,NULL,7242
1428411488,c78977df29b7a9a012844c5904f09cfa,AcceptabilityJudgment,153,0,filler,NULL,undefined
1428411488,c78977df29b7a9a012844c5904f09cfa,AcceptabilityJudgment,153,0,filler,NULL,NULL,4,NULL,5469
1428411488,c78977df29b7a9a012844c5904f09cfa,AcceptabilityJudgment,23,0,t-B1-pet-dat-sbj,7,undefined
1428411488,c78977df29b7a9a012844c5904f09cfa,AcceptabilityJudgment,23,0,t-B1-pet-dat-sbj,7,NULL,1,NULL,3688
1428411488,c78977df29b7a9a012844c5904f09cfa,AcceptabilityJudgment,141,0,filler,NULL,undefined
1428411488,c78977df29b7a9a012844c5904f09cfa,AcceptabilityJudgment,141,0,filler,NULL,NULL,7,NULL,6738
1428411488,c78977df29b7a9a012844c5904f09cfa,AcceptabilityJudgment,129,0,t-A2-ada-ext-sbj,NULL,undefined
1428411488,c78977df29b7a9a012844c5904f09cfa,AcceptabilityJudgment,129,0,t-A2-ada-ext-sbj,NULL,NULL,2,NULL,7219
1428411488,c78977df29b7a9a012844c5904f09cfa,AcceptabilityJudgment,80,0,t-A1-mar-nom-obj,26,undefined
1428411488,c78977df29b7a9a012844c5904f09cfa,AcceptabilityJudgment,80,0,t-A1-mar-nom-obj,26,NULL,7,NULL,5668
1428411488,c78977df29b7a9a012844c5904f09cfa,AcceptabilityJudgment,142,0,filler,NULL,undefined
1428411488,c78977df29b7a9a012844c5904f09cfa,AcceptabilityJudgment,142,0,filler,NULL,NULL,1,NULL,4864
1428411488,c78977df29b7a9a012844c5904f09cfa,AcceptabilityJudgment,8,0,t-B1-mar-nom-obj,2,undefined
1428411488,c78977df29b7a9a012844c5904f09cfa,AcceptabilityJudgment,8,0,t-B1-mar-nom-obj,2,NULL,5,NULL,9245
1428411488,c78977df29b7a9a012844c5904f09cfa,AcceptabilityJudgment,138,0,filler,NULL,undefined
1428411488,c78977df29b7a9a012844c5904f09cfa,AcceptabilityJudgment,138,0,filler,NULL,NULL,1,NULL,8460
1428411488,c78977df29b7a9a012844c5904f09cfa,AcceptabilityJudgment,104,0,t-A1-ada-nom-obj,34,undefined
1428411488,c78977df29b7a9a012844c5904f09cfa,AcceptabilityJudgment,104,0,t-A1-ada-nom-obj,34,NULL,1,NULL,3798
1428411488,c78977df29b7a9a012844c5904f09cfa,AcceptabilityJudgment,47,0,t-B1-jul-dat-sbj,15,undefined
1428411488,c78977df29b7a9a012844c5904f09cfa,AcceptabilityJudgment,47,0,t-B1-jul-dat-sbj,15,NULL,1,NULL,8818
1428411488,c78977df29b7a9a012844c5904f09cfa,AcceptabilityJudgment,143,0,filler,NULL,undefined
1428411488,c78977df29b7a9a012844c5904f09cfa,AcceptabilityJudgment,143,0,filler,NULL,NULL,6,NULL,5670
1428411488,c78977df29b7a9a012844c5904f09cfa,AcceptabilityJudgment,127,0,t-A2-pet-ext-sbj,NULL,undefined
1428411488,c78977df29b7a9a012844c5904f09cfa,AcceptabilityJudgment,127,0,t-A2-pet-ext-sbj,NULL,NULL,1,NULL,4685
1428411488,c78977df29b7a9a012844c5904f09cfa,AcceptabilityJudgment,65,0,t-B2-ada-ext-sbj,21,undefined
1428411488,c78977df29b7a9a012844c5904f09cfa,AcceptabilityJudgment,65,0,t-B2-ada-ext-sbj,21,NULL,6,NULL,5725
1428411488,c78977df29b7a9a012844c5904f09cfa,AcceptabilityJudgment,149,0,filler,NULL,undefined
1428411488,c78977df29b7a9a012844c5904f09cfa,AcceptabilityJudgment,149,0,filler,NULL,NULL,7,NULL,3890
1428411488,c78977df29b7a9a012844c5904f09cfa,AcceptabilityJudgment,125,0,t-A2-mar-ext-sbj,NULL,undefined
1428411488,c78977df29b7a9a012844c5904f09cfa,AcceptabilityJudgment,125,0,t-A2-mar-ext-sbj,NULL,NULL,2,NULL,5567
1428411488,c78977df29b7a9a012844c5904f09cfa,AcceptabilityJudgment,158,0,filler,NULL,undefined
1428411488,c78977df29b7a9a012844c5904f09cfa,AcceptabilityJudgment,158,0,filler,NULL,NULL,3,NULL,10108
1428411488,c78977df29b7a9a012844c5904f09cfa,AcceptabilityJudgment,53,0,t-B2-mar-ext-sbj,17,undefined
1428411488,c78977df29b7a9a012844c5904f09cfa,AcceptabilityJudgment,53,0,t-B2-mar-ext-sbj,17,NULL,3,NULL,3912
1428411488,c78977df29b7a9a012844c5904f09cfa,AcceptabilityJudgment,20,0,t-B1-pet-nom-obj,6,undefined
1428411488,c78977df29b7a9a012844c5904f09cfa,AcceptabilityJudgment,20,0,t-B1-pet-nom-obj,6,NULL,1,NULL,4484
1428411488,c78977df29b7a9a012844c5904f09cfa,AcceptabilityJudgment,144,0,filler,NULL,undefined
1428411488,c78977df29b7a9a012844c5904f09cfa,AcceptabilityJudgment,144,0,filler,NULL,NULL,7,NULL,4088
1428411488,c78977df29b7a9a012844c5904f09cfa,AcceptabilityJudgment,44,0,t-B1-jul-nom-obj,14,undefined
1428411488,c78977df29b7a9a012844c5904f09cfa,AcceptabilityJudgment,44,0,t-B1-jul-nom-obj,14,NULL,6,NULL,6021
1428411488,c78977df29b7a9a012844c5904f09cfa,AcceptabilityJudgment,162,0,filler,NULL,undefined
1428411488,c78977df29b7a9a012844c5904f09cfa,AcceptabilityJudgment,162,0,filler,NULL,NULL,1,NULL,2434
1428411488,c78977df29b7a9a012844c5904f09cfa,AcceptabilityJudgment,71,0,t-B2-jul-ext-sbj,23,undefined
1428411488,c78977df29b7a9a012844c5904f09cfa,AcceptabilityJudgment,71,0,t-B2-jul-ext-sbj,23,NULL,4,NULL,6588
1428411488,c78977df29b7a9a012844c5904f09cfa,AcceptabilityJudgment,5,0,t-B1-mar-nom-sbj,1,undefined
1428411488,c78977df29b7a9a012844c5904f09cfa,AcceptabilityJudgment,5,0,t-B1-mar-nom-sbj,1,NULL,1,NULL,3212
1428411488,c78977df29b7a9a012844c5904f09cfa,AcceptabilityJudgment,133,0,filler,NULL,undefined
1428411488,c78977df29b7a9a012844c5904f09cfa,AcceptabilityJudgment,133,0,filler,NULL,NULL,7,NULL,2735
1428411488,c78977df29b7a9a012844c5904f09cfa,AcceptabilityJudgment,92,0,t-A1-pet-nom-obj,30,undefined
1428411488,c78977df29b7a9a012844c5904f09cfa,AcceptabilityJudgment,92,0,t-A1-pet-nom-obj,30,NULL,7,NULL,5719
1428411488,c78977df29b7a9a012844c5904f09cfa,AcceptabilityJudgment,119,0,t-A1-jul-dat-sbj,39,undefined
1428411488,c78977df29b7a9a012844c5904f09cfa,AcceptabilityJudgment,119,0,t-A1-jul-dat-sbj,39,NULL,1,NULL,3789
1428411488,c78977df29b7a9a012844c5904f09cfa,AcceptabilityJudgment,136,0,filler,NULL,undefined
1428411488,c78977df29b7a9a012844c5904f09cfa,AcceptabilityJudgment,136,0,filler,NULL,NULL,3,NULL,4514
1428411488,c78977df29b7a9a012844c5904f09cfa,AcceptabilityJudgment,41,0,t-B1-jul-nom-sbj,13,undefined
1428411488,c78977df29b7a9a012844c5904f09cfa,AcceptabilityJudgment,41,0,t-B1-jul-nom-sbj,13,NULL,1,NULL,5724
1428411488,c78977df29b7a9a012844c5904f09cfa,AcceptabilityJudgment,134,0,filler,NULL,undefined
1428411488,c78977df29b7a9a012844c5904f09cfa,AcceptabilityJudgment,134,0,filler,NULL,NULL,1,NULL,10548
1428411488,c78977df29b7a9a012844c5904f09cfa,AcceptabilityJudgment,89,0,t-A1-pet-nom-sbj,29,undefined
1428411488,c78977df29b7a9a012844c5904f09cfa,AcceptabilityJudgment,89,0,t-A1-pet-nom-sbj,29,NULL,1,NULL,3223
1428411488,c78977df29b7a9a012844c5904f09cfa,AcceptabilityJudgment,113,0,t-A1-jul-nom-sbj,37,undefined
1428411488,c78977df29b7a9a012844c5904f09cfa,AcceptabilityJudgment,113,0,t-A1-jul-nom-sbj,37,NULL,1,NULL,3334
1428411488,c78977df29b7a9a012844c5904f09cfa,AcceptabilityJudgment,154,0,filler,NULL,undefined
1428411488,c78977df29b7a9a012844c5904f09cfa,AcceptabilityJudgment,154,0,filler,NULL,NULL,1,NULL,3991
1428411488,c78977df29b7a9a012844c5904f09cfa,AcceptabilityJudgment,26,0,t-B1-pet-dat-obj,8,undefined
1428411488,c78977df29b7a9a012844c5904f09cfa,AcceptabilityJudgment,26,0,t-B1-pet-dat-obj,8,NULL,5,NULL,6235
1428411488,c78977df29b7a9a012844c5904f09cfa,AcceptabilityJudgment,152,0,filler,NULL,undefined
1428411488,c78977df29b7a9a012844c5904f09cfa,AcceptabilityJudgment,152,0,filler,NULL,NULL,7,NULL,2399
1428411488,c78977df29b7a9a012844c5904f09cfa,AcceptabilityJudgment,95,0,t-A1-pet-dat-sbj,31,undefined
1428411488,c78977df29b7a9a012844c5904f09cfa,AcceptabilityJudgment,95,0,t-A1-pet-dat-sbj,31,NULL,1,NULL,5280
1428411488,c78977df29b7a9a012844c5904f09cfa,AcceptabilityJudgment,62,0,t-B2-pet-ext-obj,20,undefined
1428411488,c78977df29b7a9a012844c5904f09cfa,AcceptabilityJudgment,62,0,t-B2-pet-ext-obj,20,NULL,3,NULL,8353
1428411488,c78977df29b7a9a012844c5904f09cfa,AcceptabilityJudgment,160,0,filler,NULL,undefined
1428411488,c78977df29b7a9a012844c5904f09cfa,AcceptabilityJudgment,160,0,filler,NULL,NULL,2,NULL,11761
1428411488,c78977df29b7a9a012844c5904f09cfa,AcceptabilityJudgment,107,0,t-A1-ada-dat-sbj,35,undefined
1428411488,c78977df29b7a9a012844c5904f09cfa,AcceptabilityJudgment,107,0,t-A1-ada-dat-sbj,35,NULL,1,NULL,6035
1428411488,c78977df29b7a9a012844c5904f09cfa,AcceptabilityJudgment,11,0,t-B1-mar-dat-sbj,3,undefined
1428411488,c78977df29b7a9a012844c5904f09cfa,AcceptabilityJudgment,11,0,t-B1-mar-dat-sbj,3,NULL,1,NULL,2629
1428411488,c78977df29b7a9a012844c5904f09cfa,AcceptabilityJudgment,159,0,filler,NULL,undefined
1428411488,c78977df29b7a9a012844c5904f09cfa,AcceptabilityJudgment,159,0,filler,NULL,NULL,1,NULL,3496
1428411488,c78977df29b7a9a012844c5904f09cfa,AcceptabilityJudgment,83,0,t-A1-mar-dat-sbj,27,undefined
1428411488,c78977df29b7a9a012844c5904f09cfa,AcceptabilityJudgment,83,0,t-A1-mar-dat-sbj,27,NULL,1,NULL,6641
1428411488,c78977df29b7a9a012844c5904f09cfa,AcceptabilityJudgment,137,0,filler,NULL,undefined
1428411488,c78977df29b7a9a012844c5904f09cfa,AcceptabilityJudgment,137,0,filler,NULL,NULL,7,NULL,2415
1428411488,c78977df29b7a9a012844c5904f09cfa,AcceptabilityJudgment,130,0,t-A2-ada-ext-obj,NULL,undefined
1428411488,c78977df29b7a9a012844c5904f09cfa,AcceptabilityJudgment,130,0,t-A2-ada-ext-obj,NULL,NULL,1,NULL,22533
1428411488,c78977df29b7a9a012844c5904f09cfa,AcceptabilityJudgment,77,0,t-A1-mar-nom-sbj,25,undefined
1428411488,c78977df29b7a9a012844c5904f09cfa,AcceptabilityJudgment,77,0,t-A1-mar-nom-sbj,25,NULL,1,NULL,2038
1428411488,c78977df29b7a9a012844c5904f09cfa,AcceptabilityJudgment,139,0,filler,NULL,undefined
1428411488,c78977df29b7a9a012844c5904f09cfa,AcceptabilityJudgment,139,0,filler,NULL,NULL,4,NULL,4877
1428411488,c78977df29b7a9a012844c5904f09cfa,AcceptabilityJudgment,35,0,t-B1-ada-dat-sbj,11,undefined
1428411488,c78977df29b7a9a012844c5904f09cfa,AcceptabilityJudgment,35,0,t-B1-ada-dat-sbj,11,NULL,1,NULL,3176
1428411488,c78977df29b7a9a012844c5904f09cfa,AcceptabilityJudgment,155,0,filler,NULL,undefined
1428411488,c78977df29b7a9a012844c5904f09cfa,AcceptabilityJudgment,155,0,filler,NULL,NULL,1,NULL,2918
1428411488,c78977df29b7a9a012844c5904f09cfa,AcceptabilityJudgment,68,0,t-B2-ada-ext-obj,22,undefined
1428411488,c78977df29b7a9a012844c5904f09cfa,AcceptabilityJudgment,68,0,t-B2-ada-ext-obj,22,NULL,7,NULL,4972
1428411488,c78977df29b7a9a012844c5904f09cfa,AcceptabilityJudgment,126,0,t-A2-mar-ext-obj,NULL,undefined
1428411488,c78977df29b7a9a012844c5904f09cfa,AcceptabilityJudgment,126,0,t-A2-mar-ext-obj,NULL,NULL,4,NULL,4125
1428411488,c78977df29b7a9a012844c5904f09cfa,AcceptabilityJudgment,147,0,filler,NULL,undefined
1428411488,c78977df29b7a9a012844c5904f09cfa,AcceptabilityJudgment,147,0,filler,NULL,NULL,7,NULL,2849
1428411488,c78977df29b7a9a012844c5904f09cfa,AcceptabilityJudgment,14,0,t-B1-mar-dat-obj,4,undefined
1428411488,c78977df29b7a9a012844c5904f09cfa,AcceptabilityJudgment,14,0,t-B1-mar-dat-obj,4,NULL,7,NULL,6099
1428411488,c78977df29b7a9a012844c5904f09cfa,AcceptabilityJudgment,17,0,t-B1-pet-nom-sbj,5,undefined
1428411488,c78977df29b7a9a012844c5904f09cfa,AcceptabilityJudgment,17,0,t-B1-pet-nom-sbj,5,NULL,1,NULL,3915
1428411488,c78977df29b7a9a012844c5904f09cfa,AcceptabilityJudgment,156,0,filler,NULL,undefined
1428411488,c78977df29b7a9a012844c5904f09cfa,AcceptabilityJudgment,156,0,filler,NULL,NULL,1,NULL,2455
1428411488,c78977df29b7a9a012844c5904f09cfa,AcceptabilityJudgment,98,0,t-A1-pet-dat-obj,32,undefined
1428411488,c78977df29b7a9a012844c5904f09cfa,AcceptabilityJudgment,98,0,t-A1-pet-dat-obj,32,NULL,7,NULL,7564
1428411488,c78977df29b7a9a012844c5904f09cfa,AcceptabilityJudgment,140,0,filler,NULL,undefined
1428411488,c78977df29b7a9a012844c5904f09cfa,AcceptabilityJudgment,140,0,filler,NULL,NULL,7,NULL,3786
1428411488,c78977df29b7a9a012844c5904f09cfa,AcceptabilityJudgment,32,0,t-B1-ada-nom-obj,10,undefined
1428411488,c78977df29b7a9a012844c5904f09cfa,AcceptabilityJudgment,32,0,t-B1-ada-nom-obj,10,NULL,7,NULL,7030
1428411488,c78977df29b7a9a012844c5904f09cfa,AcceptabilityJudgment,50,0,t-B1-jul-dat-obj,16,undefined
1428411488,c78977df29b7a9a012844c5904f09cfa,AcceptabilityJudgment,50,0,t-B1-jul-dat-obj,16,NULL,7,NULL,5953
1428411488,c78977df29b7a9a012844c5904f09cfa,AcceptabilityJudgment,157,0,filler,NULL,undefined
1428411488,c78977df29b7a9a012844c5904f09cfa,AcceptabilityJudgment,157,0,filler,NULL,NULL,1,NULL,2757
1428411488,c78977df29b7a9a012844c5904f09cfa,AcceptabilityJudgment,56,0,t-B2-mar-ext-obj,18,undefined
1428411488,c78977df29b7a9a012844c5904f09cfa,AcceptabilityJudgment,56,0,t-B2-mar-ext-obj,18,NULL,6,NULL,8191
1428411488,c78977df29b7a9a012844c5904f09cfa,AcceptabilityJudgment,150,0,filler,NULL,undefined
1428411488,c78977df29b7a9a012844c5904f09cfa,AcceptabilityJudgment,150,0,filler,NULL,NULL,6,NULL,3291
1428411488,c78977df29b7a9a012844c5904f09cfa,AcceptabilityJudgment,101,0,t-A1-ada-nom-sbj,33,undefined
1428411488,c78977df29b7a9a012844c5904f09cfa,AcceptabilityJudgment,101,0,t-A1-ada-nom-sbj,33,NULL,1,NULL,2753
1428411488,c78977df29b7a9a012844c5904f09cfa,AcceptabilityJudgment,131,0,t-A2-jul-ext-sbj,NULL,undefined
1428411488,c78977df29b7a9a012844c5904f09cfa,AcceptabilityJudgment,131,0,t-A2-jul-ext-sbj,NULL,NULL,1,NULL,2392
1428411488,c78977df29b7a9a012844c5904f09cfa,AcceptabilityJudgment,145,0,filler,NULL,undefined
1428411488,c78977df29b7a9a012844c5904f09cfa,AcceptabilityJudgment,145,0,filler,NULL,NULL,4,NULL,7423
1428411488,c78977df29b7a9a012844c5904f09cfa,AcceptabilityJudgment,74,0,t-B2-jul-ext-obj,24,undefined
1428411488,c78977df29b7a9a012844c5904f09cfa,AcceptabilityJudgment,74,0,t-B2-jul-ext-obj,24,NULL,7,NULL,5511
1428411488,c78977df29b7a9a012844c5904f09cfa,AcceptabilityJudgment,29,0,t-B1-ada-nom-sbj,9,undefined
1428411488,c78977df29b7a9a012844c5904f09cfa,AcceptabilityJudgment,29,0,t-B1-ada-nom-sbj,9,NULL,2,NULL,3733
1428411488,c78977df29b7a9a012844c5904f09cfa,AcceptabilityJudgment,161,0,filler,NULL,undefined
1428411488,c78977df29b7a9a012844c5904f09cfa,AcceptabilityJudgment,161,0,filler,NULL,NULL,1,NULL,2694
1428411488,c78977df29b7a9a012844c5904f09cfa,AcceptabilityJudgment,128,0,t-A2-pet-ext-obj,NULL,undefined
1428411488,c78977df29b7a9a012844c5904f09cfa,AcceptabilityJudgment,128,0,t-A2-pet-ext-obj,NULL,NULL,5,NULL,6127
1428411488,c78977df29b7a9a012844c5904f09cfa,AcceptabilityJudgment,151,0,filler,NULL,undefined
1428411488,c78977df29b7a9a012844c5904f09cfa,AcceptabilityJudgment,151,0,filler,NULL,NULL,7,NULL,1766
1428411488,c78977df29b7a9a012844c5904f09cfa,AcceptabilityJudgment,38,0,t-B1-ada-dat-obj,12,undefined
1428411488,c78977df29b7a9a012844c5904f09cfa,AcceptabilityJudgment,38,0,t-B1-ada-dat-obj,12,NULL,7,NULL,4597
1428411488,c78977df29b7a9a012844c5904f09cfa,AcceptabilityJudgment,110,0,t-A1-ada-dat-obj,36,undefined
1428411488,c78977df29b7a9a012844c5904f09cfa,AcceptabilityJudgment,110,0,t-A1-ada-dat-obj,36,NULL,4,NULL,5788
1428411488,c78977df29b7a9a012844c5904f09cfa,AcceptabilityJudgment,146,0,filler,NULL,undefined
1428411488,c78977df29b7a9a012844c5904f09cfa,AcceptabilityJudgment,146,0,filler,NULL,NULL,6,NULL,4121
1428411488,c78977df29b7a9a012844c5904f09cfa,AcceptabilityJudgment,132,0,t-A2-jul-ext-obj,NULL,undefined
1428411488,c78977df29b7a9a012844c5904f09cfa,AcceptabilityJudgment,132,0,t-A2-jul-ext-obj,NULL,NULL,4,NULL,3519
1428411488,c78977df29b7a9a012844c5904f09cfa,AcceptabilityJudgment,135,0,filler,NULL,undefined
1428411488,c78977df29b7a9a012844c5904f09cfa,AcceptabilityJudgment,135,0,filler,NULL,NULL,6,NULL,3775
#
# Results on Tuesday April 07 2015 13:00:23 UTC.
# USER AGENT: Mozilla/5.0 (Windows NT 5.1; rv:37.0) Gecko/20100101 Firefox/37.0
# Design number was non-random = 33
#
# Columns below this comment are as follows:
# 1. Time results were received.
# 2. MD5 hash of participant's IP address.
# 3. Controller name.
# 4. Item number.
# 5. Element number.
# 6. Type.
# 7. Group.
# 8. Field name.
# 9. Field value.
1428411623,1a2231456fbcf95936d950e0104b1504,Form,1,0,intro,NULL,age,36
1428411623,1a2231456fbcf95936d950e0104b1504,Form,1,0,intro,NULL,place of birth,Hajdú-Bihar
1428411623,1a2231456fbcf95936d950e0104b1504,Form,1,0,intro,NULL,residence,Hajdúdorog
1428411623,1a2231456fbcf95936d950e0104b1504,Form,1,0,intro,NULL,consent,yes
1428411623,1a2231456fbcf95936d950e0104b1504,Form,1,0,intro,NULL,sex,female
# The lines below this comment are in groups of 2.
# The formats of the lines in each of these groups are as follows:
#
# Line 1:
#     Col. 1: Time results were received.
#     Col. 2: MD5 hash of participant's IP address.
#     Col. 3: Controller name.
#     Col. 4: Item number.
#     Col. 5: Element number.
#     Col. 6: Type.
#     Col. 7: Group.
#     Col. 8: Sentence (or sentence MD5).
# Line 2:
#     Col. 1: Time results were received.
#     Col. 2: MD5 hash of participant's IP address.
#     Col. 3: Controller name.
#     Col. 4: Item number.
#     Col. 5: Element number.
#     Col. 6: Type.
#     Col. 7: Group.
#     Col. 8: Question (NULL if none).
#     Col. 9: Answer.
#     Col. 10: Whether or not answer was correct (NULL if N/A).
#     Col. 11: Time taken to answer.
1428411623,1a2231456fbcf95936d950e0104b1504,AcceptabilityJudgment,2,0,practice,NULL,undefined
1428411623,1a2231456fbcf95936d950e0104b1504,AcceptabilityJudgment,2,0,practice,NULL,NULL,7,NULL,7271
1428411623,1a2231456fbcf95936d950e0104b1504,AcceptabilityJudgment,3,0,practice,NULL,undefined
1428411623,1a2231456fbcf95936d950e0104b1504,AcceptabilityJudgment,3,0,practice,NULL,NULL,7,NULL,4519
1428411623,1a2231456fbcf95936d950e0104b1504,AcceptabilityJudgment,4,0,practice,NULL,undefined
1428411623,1a2231456fbcf95936d950e0104b1504,AcceptabilityJudgment,4,0,practice,NULL,NULL,1,NULL,4010
1428411623,1a2231456fbcf95936d950e0104b1504,AcceptabilityJudgment,53,0,t-B2-mar-ext-sbj,17,undefined
1428411623,1a2231456fbcf95936d950e0104b1504,AcceptabilityJudgment,53,0,t-B2-mar-ext-sbj,17,NULL,4,NULL,8968
1428411623,1a2231456fbcf95936d950e0104b1504,AcceptabilityJudgment,151,0,filler,NULL,undefined
1428411623,1a2231456fbcf95936d950e0104b1504,AcceptabilityJudgment,151,0,filler,NULL,NULL,6,NULL,24882
1428411623,1a2231456fbcf95936d950e0104b1504,AcceptabilityJudgment,11,0,t-B1-mar-dat-sbj,3,undefined
1428411623,1a2231456fbcf95936d950e0104b1504,AcceptabilityJudgment,11,0,t-B1-mar-dat-sbj,3,NULL,2,NULL,5301
1428411623,1a2231456fbcf95936d950e0104b1504,AcceptabilityJudgment,95,0,t-A1-pet-dat-sbj,31,undefined
1428411623,1a2231456fbcf95936d950e0104b1504,AcceptabilityJudgment,95,0,t-A1-pet-dat-sbj,31,NULL,1,NULL,3557
1428411623,1a2231456fbcf95936d950e0104b1504,AcceptabilityJudgment,140,0,filler,NULL,undefined
1428411623,1a2231456fbcf95936d950e0104b1504,AcceptabilityJudgment,140,0,filler,NULL,NULL,7,NULL,3279
1428411623,1a2231456fbcf95936d950e0104b1504,AcceptabilityJudgment,77,0,t-A1-mar-nom-sbj,25,undefined
1428411623,1a2231456fbcf95936d950e0104b1504,AcceptabilityJudgment,77,0,t-A1-mar-nom-sbj,25,NULL,1,NULL,3573
1428411623,1a2231456fbcf95936d950e0104b1504,AcceptabilityJudgment,149,0,filler,NULL,undefined
1428411623,1a2231456fbcf95936d950e0104b1504,AcceptabilityJudgment,149,0,filler,NULL,NULL,6,NULL,4255
1428411623,1a2231456fbcf95936d950e0104b1504,AcceptabilityJudgment,125,0,t-A2-mar-ext-sbj,NULL,undefined
1428411623,1a2231456fbcf95936d950e0104b1504,AcceptabilityJudgment,125,0,t-A2-mar-ext-sbj,NULL,NULL,1,NULL,2986
1428411623,1a2231456fbcf95936d950e0104b1504,AcceptabilityJudgment,35,0,t-B1-ada-dat-sbj,11,undefined
1428411623,1a2231456fbcf95936d950e0104b1504,AcceptabilityJudgment,35,0,t-B1-ada-dat-sbj,11,NULL,5,NULL,9648
1428411623,1a2231456fbcf95936d950e0104b1504,AcceptabilityJudgment,162,0,filler,NULL,undefined
1428411623,1a2231456fbcf95936d950e0104b1504,AcceptabilityJudgment,162,0,filler,NULL,NULL,2,NULL,3118
1428411623,1a2231456fbcf95936d950e0104b1504,AcceptabilityJudgment,89,0,t-A1-pet-nom-sbj,29,undefined
1428411623,1a2231456fbcf95936d950e0104b1504,AcceptabilityJudgment,89,0,t-A1-pet-nom-sbj,29,NULL,1,NULL,3936
1428411623,1a2231456fbcf95936d950e0104b1504,AcceptabilityJudgment,161,0,filler,NULL,undefined
1428411623,1a2231456fbcf95936d950e0104b1504,AcceptabilityJudgment,161,0,filler,NULL,NULL,1,NULL,6877
1428411623,1a2231456fbcf95936d950e0104b1504,AcceptabilityJudgment,127,0,t-A2-pet-ext-sbj,NULL,undefined
1428411623,1a2231456fbcf95936d950e0104b1504,AcceptabilityJudgment,127,0,t-A2-pet-ext-sbj,NULL,NULL,1,NULL,3834
1428411623,1a2231456fbcf95936d950e0104b1504,AcceptabilityJudgment,130,0,t-A2-ada-ext-obj,NULL,undefined
1428411623,1a2231456fbcf95936d950e0104b1504,AcceptabilityJudgment,130,0,t-A2-ada-ext-obj,NULL,NULL,5,NULL,7706
1428411623,1a2231456fbcf95936d950e0104b1504,AcceptabilityJudgment,150,0,filler,NULL,undefined
1428411623,1a2231456fbcf95936d950e0104b1504,AcceptabilityJudgment,150,0,filler,NULL,NULL,7,NULL,2809
1428411623,1a2231456fbcf95936d950e0104b1504,AcceptabilityJudgment,74,0,t-B2-jul-ext-obj,24,undefined
1428411623,1a2231456fbcf95936d950e0104b1504,AcceptabilityJudgment,74,0,t-B2-jul-ext-obj,24,NULL,6,NULL,6915
1428411623,1a2231456fbcf95936d950e0104b1504,AcceptabilityJudgment,129,0,t-A2-ada-ext-sbj,NULL,undefined
1428411623,1a2231456fbcf95936d950e0104b1504,AcceptabilityJudgment,129,0,t-A2-ada-ext-sbj,NULL,NULL,2,NULL,10477
1428411623,1a2231456fbcf95936d950e0104b1504,AcceptabilityJudgment,138,0,filler,NULL,undefined
1428411623,1a2231456fbcf95936d950e0104b1504,AcceptabilityJudgment,138,0,filler,NULL,NULL,7,NULL,5738
1428411623,1a2231456fbcf95936d950e0104b1504,AcceptabilityJudgment,101,0,t-A1-ada-nom-sbj,33,undefined
1428411623,1a2231456fbcf95936d950e0104b1504,AcceptabilityJudgment,101,0,t-A1-ada-nom-sbj,33,NULL,1,NULL,4431
1428411623,1a2231456fbcf95936d950e0104b1504,AcceptabilityJudgment,144,0,filler,NULL,undefined
1428411623,1a2231456fbcf95936d950e0104b1504,AcceptabilityJudgment,144,0,filler,NULL,NULL,7,NULL,6747
1428411623,1a2231456fbcf95936d950e0104b1504,AcceptabilityJudgment,50,0,t-B1-jul-dat-obj,16,undefined
1428411623,1a2231456fbcf95936d950e0104b1504,AcceptabilityJudgment,50,0,t-B1-jul-dat-obj,16,NULL,7,NULL,4315
1428411623,1a2231456fbcf95936d950e0104b1504,AcceptabilityJudgment,128,0,t-A2-pet-ext-obj,NULL,undefined
1428411623,1a2231456fbcf95936d950e0104b1504,AcceptabilityJudgment,128,0,t-A2-pet-ext-obj,NULL,NULL,3,NULL,5671
1428411623,1a2231456fbcf95936d950e0104b1504,AcceptabilityJudgment,155,0,filler,NULL,undefined
1428411623,1a2231456fbcf95936d950e0104b1504,AcceptabilityJudgment,155,0,filler,NULL,NULL,1,NULL,2884
1428411623,1a2231456fbcf95936d950e0104b1504,AcceptabilityJudgment,17,0,t-B1-pet-nom-sbj,5,undefined
1428411623,1a2231456fbcf95936d950e0104b1504,AcceptabilityJudgment,17,0,t-B1-pet-nom-sbj,5,NULL,1,NULL,3107
1428411623,1a2231456fbcf95936d950e0104b1504,AcceptabilityJudgment,147,0,filler,NULL,undefined
1428411623,1a2231456fbcf95936d950e0104b1504,AcceptabilityJudgment,147,0,filler,NULL,NULL,7,NULL,2618
1428411623,1a2231456fbcf95936d950e0104b1504,AcceptabilityJudgment,47,0,t-B1-jul-dat-sbj,15,undefined
1428411623,1a2231456fbcf95936d950e0104b1504,AcceptabilityJudgment,47,0,t-B1-jul-dat-sbj,15,NULL,1,NULL,8880
1428411623,1a2231456fbcf95936d950e0104b1504,AcceptabilityJudgment,86,0,t-A1-mar-dat-obj,28,undefined
1428411623,1a2231456fbcf95936d950e0104b1504,AcceptabilityJudgment,86,0,t-A1-mar-dat-obj,28,NULL,6,NULL,2978
1428411623,1a2231456fbcf95936d950e0104b1504,AcceptabilityJudgment,153,0,filler,NULL,undefined
1428411623,1a2231456fbcf95936d950e0104b1504,AcceptabilityJudgment,153,0,filler,NULL,NULL,7,NULL,3998
1428411623,1a2231456fbcf95936d950e0104b1504,AcceptabilityJudgment,104,0,t-A1-ada-nom-obj,34,undefined
1428411623,1a2231456fbcf95936d950e0104b1504,AcceptabilityJudgment,104,0,t-A1-ada-nom-obj,34,NULL,6,NULL,5973
1428411623,1a2231456fbcf95936d950e0104b1504,AcceptabilityJudgment,44,0,t-B1-jul-nom-obj,14,undefined
1428411623,1a2231456fbcf95936d950e0104b1504,AcceptabilityJudgment,44,0,t-B1-jul-nom-obj,14,NULL,7,NULL,5238
1428411623,1a2231456fbcf95936d950e0104b1504,AcceptabilityJudgment,159,0,filler,NULL,undefined
1428411623,1a2231456fbcf95936d950e0104b1504,AcceptabilityJudgment,159,0,filler,NULL,NULL,1,NULL,2725
1428411623,1a2231456fbcf95936d950e0104b1504,AcceptabilityJudgment,131,0,t-A2-jul-ext-sbj,NULL,undefined
1428411623,1a2231456fbcf95936d950e0104b1504,AcceptabilityJudgment,131,0,t-A2-jul-ext-sbj,NULL,NULL,1,NULL,3289
1428411623,1a2231456fbcf95936d950e0104b1504,AcceptabilityJudgment,154,0,filler,NULL,undefined
1428411623,1a2231456fbcf95936d950e0104b1504,AcceptabilityJudgment,154,0,filler,NULL,NULL,1,NULL,3229
1428411623,1a2231456fbcf95936d950e0104b1504,AcceptabilityJudgment,80,0,t-A1-mar-nom-obj,26,undefined
1428411623,1a2231456fbcf95936d950e0104b1504,AcceptabilityJudgment,80,0,t-A1-mar-nom-obj,26,NULL,7,NULL,4298
1428411623,1a2231456fbcf95936d950e0104b1504,AcceptabilityJudgment,26,0,t-B1-pet-dat-obj,8,undefined
1428411623,1a2231456fbcf95936d950e0104b1504,AcceptabilityJudgment,26,0,t-B1-pet-dat-obj,8,NULL,7,NULL,5089
1428411623,1a2231456fbcf95936d950e0104b1504,AcceptabilityJudgment,135,0,filler,NULL,undefined
1428411623,1a2231456fbcf95936d950e0104b1504,AcceptabilityJudgment,135,0,filler,NULL,NULL,7,NULL,4411
1428411623,1a2231456fbcf95936d950e0104b1504,AcceptabilityJudgment,132,0,t-A2-jul-ext-obj,NULL,undefined
1428411623,1a2231456fbcf95936d950e0104b1504,AcceptabilityJudgment,132,0,t-A2-jul-ext-obj,NULL,NULL,7,NULL,4456
1428411623,1a2231456fbcf95936d950e0104b1504,AcceptabilityJudgment,156,0,filler,NULL,undefined
1428411623,1a2231456fbcf95936d950e0104b1504,AcceptabilityJudgment,156,0,filler,NULL,NULL,1,NULL,2255
1428411623,1a2231456fbcf95936d950e0104b1504,AcceptabilityJudgment,110,0,t-A1-ada-dat-obj,36,undefined
1428411623,1a2231456fbcf95936d950e0104b1504,AcceptabilityJudgment,110,0,t-A1-ada-dat-obj,36,NULL,6,NULL,3856
1428411623,1a2231456fbcf95936d950e0104b1504,AcceptabilityJudgment,32,0,t-B1-ada-nom-obj,10,undefined
1428411623,1a2231456fbcf95936d950e0104b1504,AcceptabilityJudgment,32,0,t-B1-ada-nom-obj,10,NULL,7,NULL,3071
1428411623,1a2231456fbcf95936d950e0104b1504,AcceptabilityJudgment,146,0,filler,NULL,undefined
1428411623,1a2231456fbcf95936d950e0104b1504,AcceptabilityJudgment,146,0,filler,NULL,NULL,7,NULL,5038
1428411623,1a2231456fbcf95936d950e0104b1504,AcceptabilityJudgment,14,0,t-B1-mar-dat-obj,4,undefined
1428411623,1a2231456fbcf95936d950e0104b1504,AcceptabilityJudgment,14,0,t-B1-mar-dat-obj,4,NULL,7,NULL,3926
1428411623,1a2231456fbcf95936d950e0104b1504,AcceptabilityJudgment,98,0,t-A1-pet-dat-obj,32,undefined
1428411623,1a2231456fbcf95936d950e0104b1504,AcceptabilityJudgment,98,0,t-A1-pet-dat-obj,32,NULL,3,NULL,7023
1428411623,1a2231456fbcf95936d950e0104b1504,AcceptabilityJudgment,136,0,filler,NULL,undefined
1428411623,1a2231456fbcf95936d950e0104b1504,AcceptabilityJudgment,136,0,filler,NULL,NULL,7,NULL,4365
1428411623,1a2231456fbcf95936d950e0104b1504,AcceptabilityJudgment,113,0,t-A1-jul-nom-sbj,37,undefined
1428411623,1a2231456fbcf95936d950e0104b1504,AcceptabilityJudgment,113,0,t-A1-jul-nom-sbj,37,NULL,1,NULL,4255
1428411623,1a2231456fbcf95936d950e0104b1504,AcceptabilityJudgment,134,0,filler,NULL,undefined
1428411623,1a2231456fbcf95936d950e0104b1504,AcceptabilityJudgment,134,0,filler,NULL,NULL,7,NULL,7793
1428411623,1a2231456fbcf95936d950e0104b1504,AcceptabilityJudgment,5,0,t-B1-mar-nom-sbj,1,undefined
1428411623,1a2231456fbcf95936d950e0104b1504,AcceptabilityJudgment,5,0,t-B1-mar-nom-sbj,1,NULL,1,NULL,2712
1428411623,1a2231456fbcf95936d950e0104b1504,AcceptabilityJudgment,38,0,t-B1-ada-dat-obj,12,undefined
1428411623,1a2231456fbcf95936d950e0104b1504,AcceptabilityJudgment,38,0,t-B1-ada-dat-obj,12,NULL,7,NULL,6427
1428411623,1a2231456fbcf95936d950e0104b1504,AcceptabilityJudgment,160,0,filler,NULL,undefined
1428411623,1a2231456fbcf95936d950e0104b1504,AcceptabilityJudgment,160,0,filler,NULL,NULL,1,NULL,2830
1428411623,1a2231456fbcf95936d950e0104b1504,AcceptabilityJudgment,41,0,t-B1-jul-nom-sbj,13,undefined
1428411623,1a2231456fbcf95936d950e0104b1504,AcceptabilityJudgment,41,0,t-B1-jul-nom-sbj,13,NULL,1,NULL,2375
1428411623,1a2231456fbcf95936d950e0104b1504,AcceptabilityJudgment,157,0,filler,NULL,undefined
1428411623,1a2231456fbcf95936d950e0104b1504,AcceptabilityJudgment,157,0,filler,NULL,NULL,1,NULL,1810
1428411623,1a2231456fbcf95936d950e0104b1504,AcceptabilityJudgment,59,0,t-B2-pet-ext-sbj,19,undefined
1428411623,1a2231456fbcf95936d950e0104b1504,AcceptabilityJudgment,59,0,t-B2-pet-ext-sbj,19,NULL,1,NULL,3180
1428411623,1a2231456fbcf95936d950e0104b1504,AcceptabilityJudgment,29,0,t-B1-ada-nom-sbj,9,undefined
1428411623,1a2231456fbcf95936d950e0104b1504,AcceptabilityJudgment,29,0,t-B1-ada-nom-sbj,9,NULL,1,NULL,3460
1428411623,1a2231456fbcf95936d950e0104b1504,AcceptabilityJudgment,148,0,filler,NULL,undefined
1428411623,1a2231456fbcf95936d950e0104b1504,AcceptabilityJudgment,148,0,filler,NULL,NULL,7,NULL,3010
1428411623,1a2231456fbcf95936d950e0104b1504,AcceptabilityJudgment,92,0,t-A1-pet-nom-obj,30,undefined
1428411623,1a2231456fbcf95936d950e0104b1504,AcceptabilityJudgment,92,0,t-A1-pet-nom-obj,30,NULL,7,NULL,4569
1428411623,1a2231456fbcf95936d950e0104b1504,AcceptabilityJudgment,116,0,t-A1-jul-nom-obj,38,undefined
1428411623,1a2231456fbcf95936d950e0104b1504,AcceptabilityJudgment,116,0,t-A1-jul-nom-obj,38,NULL,7,NULL,2251
1428411623,1a2231456fbcf95936d950e0104b1504,AcceptabilityJudgment,145,0,filler,NULL,undefined
1428411623,1a2231456fbcf95936d950e0104b1504,AcceptabilityJudgment,145,0,filler,NULL,NULL,7,NULL,3558
1428411623,1a2231456fbcf95936d950e0104b1504,AcceptabilityJudgment,71,0,t-B2-jul-ext-sbj,23,undefined
1428411623,1a2231456fbcf95936d950e0104b1504,AcceptabilityJudgment,71,0,t-B2-jul-ext-sbj,23,NULL,1,NULL,6721
1428411623,1a2231456fbcf95936d950e0104b1504,AcceptabilityJudgment,158,0,filler,NULL,undefined
1428411623,1a2231456fbcf95936d950e0104b1504,AcceptabilityJudgment,158,0,filler,NULL,NULL,1,NULL,2125
1428411623,1a2231456fbcf95936d950e0104b1504,AcceptabilityJudgment,107,0,t-A1-ada-dat-sbj,35,undefined
1428411623,1a2231456fbcf95936d950e0104b1504,AcceptabilityJudgment,107,0,t-A1-ada-dat-sbj,35,NULL,1,NULL,2340
1428411623,1a2231456fbcf95936d950e0104b1504,AcceptabilityJudgment,83,0,t-A1-mar-dat-sbj,27,undefined
1428411623,1a2231456fbcf95936d950e0104b1504,AcceptabilityJudgment,83,0,t-A1-mar-dat-sbj,27,NULL,1,NULL,3735
1428411623,1a2231456fbcf95936d950e0104b1504,AcceptabilityJudgment,137,0,filler,NULL,undefined
1428411623,1a2231456fbcf95936d950e0104b1504,AcceptabilityJudgment,137,0,filler,NULL,NULL,7,NULL,3748
1428411623,1a2231456fbcf95936d950e0104b1504,AcceptabilityJudgment,68,0,t-B2-ada-ext-obj,22,undefined
1428411623,1a2231456fbcf95936d950e0104b1504,AcceptabilityJudgment,68,0,t-B2-ada-ext-obj,22,NULL,6,NULL,5718
1428411623,1a2231456fbcf95936d950e0104b1504,AcceptabilityJudgment,141,0,filler,NULL,undefined
1428411623,1a2231456fbcf95936d950e0104b1504,AcceptabilityJudgment,141,0,filler,NULL,NULL,7,NULL,2210
1428411623,1a2231456fbcf95936d950e0104b1504,AcceptabilityJudgment,8,0,t-B1-mar-nom-obj,2,undefined
1428411623,1a2231456fbcf95936d950e0104b1504,AcceptabilityJudgment,8,0,t-B1-mar-nom-obj,2,NULL,7,NULL,2009
1428411623,1a2231456fbcf95936d950e0104b1504,AcceptabilityJudgment,20,0,t-B1-pet-nom-obj,6,undefined
1428411623,1a2231456fbcf95936d950e0104b1504,AcceptabilityJudgment,20,0,t-B1-pet-nom-obj,6,NULL,7,NULL,5209
1428411623,1a2231456fbcf95936d950e0104b1504,AcceptabilityJudgment,152,0,filler,NULL,undefined
1428411623,1a2231456fbcf95936d950e0104b1504,AcceptabilityJudgment,152,0,filler,NULL,NULL,7,NULL,1833
1428411623,1a2231456fbcf95936d950e0104b1504,AcceptabilityJudgment,23,0,t-B1-pet-dat-sbj,7,undefined
1428411623,1a2231456fbcf95936d950e0104b1504,AcceptabilityJudgment,23,0,t-B1-pet-dat-sbj,7,NULL,1,NULL,2925
1428411623,1a2231456fbcf95936d950e0104b1504,AcceptabilityJudgment,119,0,t-A1-jul-dat-sbj,39,undefined
1428411623,1a2231456fbcf95936d950e0104b1504,AcceptabilityJudgment,119,0,t-A1-jul-dat-sbj,39,NULL,1,NULL,3238
1428411623,1a2231456fbcf95936d950e0104b1504,AcceptabilityJudgment,143,0,filler,NULL,undefined
1428411623,1a2231456fbcf95936d950e0104b1504,AcceptabilityJudgment,143,0,filler,NULL,NULL,7,NULL,3241
1428411623,1a2231456fbcf95936d950e0104b1504,AcceptabilityJudgment,62,0,t-B2-pet-ext-obj,20,undefined
1428411623,1a2231456fbcf95936d950e0104b1504,AcceptabilityJudgment,62,0,t-B2-pet-ext-obj,20,NULL,7,NULL,4599
1428411623,1a2231456fbcf95936d950e0104b1504,AcceptabilityJudgment,133,0,filler,NULL,undefined
1428411623,1a2231456fbcf95936d950e0104b1504,AcceptabilityJudgment,133,0,filler,NULL,NULL,7,NULL,3347
1428411623,1a2231456fbcf95936d950e0104b1504,AcceptabilityJudgment,122,0,t-A1-jul-dat-obj,40,undefined
1428411623,1a2231456fbcf95936d950e0104b1504,AcceptabilityJudgment,122,0,t-A1-jul-dat-obj,40,NULL,7,NULL,2786
1428411623,1a2231456fbcf95936d950e0104b1504,AcceptabilityJudgment,56,0,t-B2-mar-ext-obj,18,undefined
1428411623,1a2231456fbcf95936d950e0104b1504,AcceptabilityJudgment,56,0,t-B2-mar-ext-obj,18,NULL,7,NULL,7235
1428411623,1a2231456fbcf95936d950e0104b1504,AcceptabilityJudgment,142,0,filler,NULL,undefined
1428411623,1a2231456fbcf95936d950e0104b1504,AcceptabilityJudgment,142,0,filler,NULL,NULL,7,NULL,2396
1428411623,1a2231456fbcf95936d950e0104b1504,AcceptabilityJudgment,126,0,t-A2-mar-ext-obj,NULL,undefined
1428411623,1a2231456fbcf95936d950e0104b1504,AcceptabilityJudgment,126,0,t-A2-mar-ext-obj,NULL,NULL,5,NULL,13580
1428411623,1a2231456fbcf95936d950e0104b1504,AcceptabilityJudgment,139,0,filler,NULL,undefined
1428411623,1a2231456fbcf95936d950e0104b1504,AcceptabilityJudgment,139,0,filler,NULL,NULL,7,NULL,4055
1428411623,1a2231456fbcf95936d950e0104b1504,AcceptabilityJudgment,65,0,t-B2-ada-ext-sbj,21,undefined
1428411623,1a2231456fbcf95936d950e0104b1504,AcceptabilityJudgment,65,0,t-B2-ada-ext-sbj,21,NULL,1,NULL,4330
#
# Results on Tuesday April 07 2015 13:08:34 UTC.
# USER AGENT: Mozilla/5.0 (Windows NT 6.1; WOW64) AppleWebKit/537.36 (KHTML, like Gecko) Chrome/41.0.2272.118 Safari/537.36
# Design number was non-random = 33
#
# Columns below this comment are as follows:
# 1. Time results were received.
# 2. MD5 hash of participant's IP address.
# 3. Controller name.
# 4. Item number.
# 5. Element number.
# 6. Type.
# 7. Group.
# 8. Field name.
# 9. Field value.
1428412115,c108b80334f63126778f7361e81a1251,Form,1,0,intro,NULL,age,40
1428412115,c108b80334f63126778f7361e81a1251,Form,1,0,intro,NULL,place of birth,Baranya
1428412115,c108b80334f63126778f7361e81a1251,Form,1,0,intro,NULL,residence,Pécs
1428412115,c108b80334f63126778f7361e81a1251,Form,1,0,intro,NULL,consent,yes
1428412115,c108b80334f63126778f7361e81a1251,Form,1,0,intro,NULL,sex,male
# The lines below this comment are in groups of 2.
# The formats of the lines in each of these groups are as follows:
#
# Line 1:
#     Col. 1: Time results were received.
#     Col. 2: MD5 hash of participant's IP address.
#     Col. 3: Controller name.
#     Col. 4: Item number.
#     Col. 5: Element number.
#     Col. 6: Type.
#     Col. 7: Group.
#     Col. 8: Sentence (or sentence MD5).
# Line 2:
#     Col. 1: Time results were received.
#     Col. 2: MD5 hash of participant's IP address.
#     Col. 3: Controller name.
#     Col. 4: Item number.
#     Col. 5: Element number.
#     Col. 6: Type.
#     Col. 7: Group.
#     Col. 8: Question (NULL if none).
#     Col. 9: Answer.
#     Col. 10: Whether or not answer was correct (NULL if N/A).
#     Col. 11: Time taken to answer.
1428412115,c108b80334f63126778f7361e81a1251,AcceptabilityJudgment,2,0,practice,NULL,undefined
1428412115,c108b80334f63126778f7361e81a1251,AcceptabilityJudgment,2,0,practice,NULL,NULL,7,NULL,10440
1428412115,c108b80334f63126778f7361e81a1251,AcceptabilityJudgment,3,0,practice,NULL,undefined
1428412115,c108b80334f63126778f7361e81a1251,AcceptabilityJudgment,3,0,practice,NULL,NULL,7,NULL,2878
1428412115,c108b80334f63126778f7361e81a1251,AcceptabilityJudgment,4,0,practice,NULL,undefined
1428412115,c108b80334f63126778f7361e81a1251,AcceptabilityJudgment,4,0,practice,NULL,NULL,1,NULL,2146
1428412115,c108b80334f63126778f7361e81a1251,AcceptabilityJudgment,8,0,t-B1-mar-nom-obj,2,undefined
1428412115,c108b80334f63126778f7361e81a1251,AcceptabilityJudgment,8,0,t-B1-mar-nom-obj,2,NULL,7,NULL,6753
1428412115,c108b80334f63126778f7361e81a1251,AcceptabilityJudgment,23,0,t-B1-pet-dat-sbj,7,undefined
1428412115,c108b80334f63126778f7361e81a1251,AcceptabilityJudgment,23,0,t-B1-pet-dat-sbj,7,NULL,1,NULL,2508
1428412115,c108b80334f63126778f7361e81a1251,AcceptabilityJudgment,144,0,filler,NULL,undefined
1428412115,c108b80334f63126778f7361e81a1251,AcceptabilityJudgment,144,0,filler,NULL,NULL,7,NULL,7912
1428412115,c108b80334f63126778f7361e81a1251,AcceptabilityJudgment,59,0,t-B2-pet-ext-sbj,19,undefined
1428412115,c108b80334f63126778f7361e81a1251,AcceptabilityJudgment,59,0,t-B2-pet-ext-sbj,19,NULL,1,NULL,2813
1428412115,c108b80334f63126778f7361e81a1251,AcceptabilityJudgment,130,0,t-A2-ada-ext-obj,NULL,undefined
1428412115,c108b80334f63126778f7361e81a1251,AcceptabilityJudgment,130,0,t-A2-ada-ext-obj,NULL,NULL,1,NULL,7644
1428412115,c108b80334f63126778f7361e81a1251,AcceptabilityJudgment,155,0,filler,NULL,undefined
1428412115,c108b80334f63126778f7361e81a1251,AcceptabilityJudgment,155,0,filler,NULL,NULL,1,NULL,5431
1428412115,c108b80334f63126778f7361e81a1251,AcceptabilityJudgment,47,0,t-B1-jul-dat-sbj,15,undefined
1428412115,c108b80334f63126778f7361e81a1251,AcceptabilityJudgment,47,0,t-B1-jul-dat-sbj,15,NULL,1,NULL,3702
1428412115,c108b80334f63126778f7361e81a1251,AcceptabilityJudgment,135,0,filler,NULL,undefined
1428412115,c108b80334f63126778f7361e81a1251,AcceptabilityJudgment,135,0,filler,NULL,NULL,7,NULL,11109
1428412115,c108b80334f63126778f7361e81a1251,AcceptabilityJudgment,83,0,t-A1-mar-dat-sbj,27,undefined
1428412115,c108b80334f63126778f7361e81a1251,AcceptabilityJudgment,83,0,t-A1-mar-dat-sbj,27,NULL,1,NULL,1951
1428412115,c108b80334f63126778f7361e81a1251,AcceptabilityJudgment,35,0,t-B1-ada-dat-sbj,11,undefined
1428412115,c108b80334f63126778f7361e81a1251,AcceptabilityJudgment,35,0,t-B1-ada-dat-sbj,11,NULL,1,NULL,5941
1428412115,c108b80334f63126778f7361e81a1251,AcceptabilityJudgment,153,0,filler,NULL,undefined
1428412115,c108b80334f63126778f7361e81a1251,AcceptabilityJudgment,153,0,filler,NULL,NULL,7,NULL,2549
1428412115,c108b80334f63126778f7361e81a1251,AcceptabilityJudgment,44,0,t-B1-jul-nom-obj,14,undefined
1428412115,c108b80334f63126778f7361e81a1251,AcceptabilityJudgment,44,0,t-B1-jul-nom-obj,14,NULL,7,NULL,1963
1428412115,c108b80334f63126778f7361e81a1251,AcceptabilityJudgment,150,0,filler,NULL,undefined
1428412115,c108b80334f63126778f7361e81a1251,AcceptabilityJudgment,150,0,filler,NULL,NULL,7,NULL,1597
1428412115,c108b80334f63126778f7361e81a1251,AcceptabilityJudgment,98,0,t-A1-pet-dat-obj,32,undefined
1428412115,c108b80334f63126778f7361e81a1251,AcceptabilityJudgment,98,0,t-A1-pet-dat-obj,32,NULL,1,NULL,3253
1428412115,c108b80334f63126778f7361e81a1251,AcceptabilityJudgment,132,0,t-A2-jul-ext-obj,NULL,undefined
1428412115,c108b80334f63126778f7361e81a1251,AcceptabilityJudgment,132,0,t-A2-jul-ext-obj,NULL,NULL,1,NULL,3095
1428412115,c108b80334f63126778f7361e81a1251,AcceptabilityJudgment,141,0,filler,NULL,undefined
1428412115,c108b80334f63126778f7361e81a1251,AcceptabilityJudgment,141,0,filler,NULL,NULL,1,NULL,3743
1428412115,c108b80334f63126778f7361e81a1251,AcceptabilityJudgment,38,0,t-B1-ada-dat-obj,12,undefined
1428412115,c108b80334f63126778f7361e81a1251,AcceptabilityJudgment,38,0,t-B1-ada-dat-obj,12,NULL,7,NULL,3629
1428412115,c108b80334f63126778f7361e81a1251,AcceptabilityJudgment,26,0,t-B1-pet-dat-obj,8,undefined
1428412115,c108b80334f63126778f7361e81a1251,AcceptabilityJudgment,26,0,t-B1-pet-dat-obj,8,NULL,7,NULL,3442
1428412115,c108b80334f63126778f7361e81a1251,AcceptabilityJudgment,162,0,filler,NULL,undefined
1428412115,c108b80334f63126778f7361e81a1251,AcceptabilityJudgment,162,0,filler,NULL,NULL,1,NULL,2054
1428412115,c108b80334f63126778f7361e81a1251,AcceptabilityJudgment,95,0,t-A1-pet-dat-sbj,31,undefined
1428412115,c108b80334f63126778f7361e81a1251,AcceptabilityJudgment,95,0,t-A1-pet-dat-sbj,31,NULL,1,NULL,2454
1428412115,c108b80334f63126778f7361e81a1251,AcceptabilityJudgment,140,0,filler,NULL,undefined
1428412115,c108b80334f63126778f7361e81a1251,AcceptabilityJudgment,140,0,filler,NULL,NULL,7,NULL,2445
1428412115,c108b80334f63126778f7361e81a1251,AcceptabilityJudgment,32,0,t-B1-ada-nom-obj,10,undefined
1428412115,c108b80334f63126778f7361e81a1251,AcceptabilityJudgment,32,0,t-B1-ada-nom-obj,10,NULL,7,NULL,5061
1428412115,c108b80334f63126778f7361e81a1251,AcceptabilityJudgment,53,0,t-B2-mar-ext-sbj,17,undefined
1428412115,c108b80334f63126778f7361e81a1251,AcceptabilityJudgment,53,0,t-B2-mar-ext-sbj,17,NULL,1,NULL,4693
1428412115,c108b80334f63126778f7361e81a1251,AcceptabilityJudgment,146,0,filler,NULL,undefined
1428412115,c108b80334f63126778f7361e81a1251,AcceptabilityJudgment,146,0,filler,NULL,NULL,7,NULL,2544
1428412115,c108b80334f63126778f7361e81a1251,AcceptabilityJudgment,107,0,t-A1-ada-dat-sbj,35,undefined
1428412115,c108b80334f63126778f7361e81a1251,AcceptabilityJudgment,107,0,t-A1-ada-dat-sbj,35,NULL,1,NULL,2414
1428412115,c108b80334f63126778f7361e81a1251,AcceptabilityJudgment,133,0,filler,NULL,undefined
1428412115,c108b80334f63126778f7361e81a1251,AcceptabilityJudgment,133,0,filler,NULL,NULL,7,NULL,7069
1428412115,c108b80334f63126778f7361e81a1251,AcceptabilityJudgment,41,0,t-B1-jul-nom-sbj,13,undefined
1428412115,c108b80334f63126778f7361e81a1251,AcceptabilityJudgment,41,0,t-B1-jul-nom-sbj,13,NULL,1,NULL,2942
1428412115,c108b80334f63126778f7361e81a1251,AcceptabilityJudgment,17,0,t-B1-pet-nom-sbj,5,undefined
1428412115,c108b80334f63126778f7361e81a1251,AcceptabilityJudgment,17,0,t-B1-pet-nom-sbj,5,NULL,1,NULL,2182
1428412115,c108b80334f63126778f7361e81a1251,AcceptabilityJudgment,143,0,filler,NULL,undefined
1428412115,c108b80334f63126778f7361e81a1251,AcceptabilityJudgment,143,0,filler,NULL,NULL,7,NULL,1966
1428412115,c108b80334f63126778f7361e81a1251,AcceptabilityJudgment,14,0,t-B1-mar-dat-obj,4,undefined
1428412115,c108b80334f63126778f7361e81a1251,AcceptabilityJudgment,14,0,t-B1-mar-dat-obj,4,NULL,7,NULL,1861
1428412115,c108b80334f63126778f7361e81a1251,AcceptabilityJudgment,122,0,t-A1-jul-dat-obj,40,undefined
1428412115,c108b80334f63126778f7361e81a1251,AcceptabilityJudgment,122,0,t-A1-jul-dat-obj,40,NULL,1,NULL,3657
1428412115,c108b80334f63126778f7361e81a1251,AcceptabilityJudgment,154,0,filler,NULL,undefined
1428412115,c108b80334f63126778f7361e81a1251,AcceptabilityJudgment,154,0,filler,NULL,NULL,1,NULL,1898
1428412115,c108b80334f63126778f7361e81a1251,AcceptabilityJudgment,110,0,t-A1-ada-dat-obj,36,undefined
1428412115,c108b80334f63126778f7361e81a1251,AcceptabilityJudgment,110,0,t-A1-ada-dat-obj,36,NULL,1,NULL,1677
1428412115,c108b80334f63126778f7361e81a1251,AcceptabilityJudgment,137,0,filler,NULL,undefined
1428412115,c108b80334f63126778f7361e81a1251,AcceptabilityJudgment,137,0,filler,NULL,NULL,7,NULL,4148
1428412115,c108b80334f63126778f7361e81a1251,AcceptabilityJudgment,125,0,t-A2-mar-ext-sbj,NULL,undefined
1428412115,c108b80334f63126778f7361e81a1251,AcceptabilityJudgment,125,0,t-A2-mar-ext-sbj,NULL,NULL,1,NULL,7223
1428412115,c108b80334f63126778f7361e81a1251,AcceptabilityJudgment,65,0,t-B2-ada-ext-sbj,21,undefined
1428412115,c108b80334f63126778f7361e81a1251,AcceptabilityJudgment,65,0,t-B2-ada-ext-sbj,21,NULL,1,NULL,5814
1428412115,c108b80334f63126778f7361e81a1251,AcceptabilityJudgment,139,0,filler,NULL,undefined
1428412115,c108b80334f63126778f7361e81a1251,AcceptabilityJudgment,139,0,filler,NULL,NULL,7,NULL,5878
1428412115,c108b80334f63126778f7361e81a1251,AcceptabilityJudgment,50,0,t-B1-jul-dat-obj,16,undefined
1428412115,c108b80334f63126778f7361e81a1251,AcceptabilityJudgment,50,0,t-B1-jul-dat-obj,16,NULL,7,NULL,10695
1428412115,c108b80334f63126778f7361e81a1251,AcceptabilityJudgment,156,0,filler,NULL,undefined
1428412115,c108b80334f63126778f7361e81a1251,AcceptabilityJudgment,156,0,filler,NULL,NULL,1,NULL,1934
1428412115,c108b80334f63126778f7361e81a1251,AcceptabilityJudgment,20,0,t-B1-pet-nom-obj,6,undefined
1428412115,c108b80334f63126778f7361e81a1251,AcceptabilityJudgment,20,0,t-B1-pet-nom-obj,6,NULL,7,NULL,3845
1428412115,c108b80334f63126778f7361e81a1251,AcceptabilityJudgment,89,0,t-A1-pet-nom-sbj,29,undefined
1428412115,c108b80334f63126778f7361e81a1251,AcceptabilityJudgment,89,0,t-A1-pet-nom-sbj,29,NULL,1,NULL,2813
1428412115,c108b80334f63126778f7361e81a1251,AcceptabilityJudgment,148,0,filler,NULL,undefined
1428412115,c108b80334f63126778f7361e81a1251,AcceptabilityJudgment,148,0,filler,NULL,NULL,7,NULL,3998
1428412115,c108b80334f63126778f7361e81a1251,AcceptabilityJudgment,68,0,t-B2-ada-ext-obj,22,undefined
1428412115,c108b80334f63126778f7361e81a1251,AcceptabilityJudgment,68,0,t-B2-ada-ext-obj,22,NULL,7,NULL,4118
1428412115,c108b80334f63126778f7361e81a1251,AcceptabilityJudgment,71,0,t-B2-jul-ext-sbj,23,undefined
1428412115,c108b80334f63126778f7361e81a1251,AcceptabilityJudgment,71,0,t-B2-jul-ext-sbj,23,NULL,1,NULL,3582
1428412115,c108b80334f63126778f7361e81a1251,AcceptabilityJudgment,151,0,filler,NULL,undefined
1428412115,c108b80334f63126778f7361e81a1251,AcceptabilityJudgment,151,0,filler,NULL,NULL,7,NULL,2134
1428412115,c108b80334f63126778f7361e81a1251,AcceptabilityJudgment,86,0,t-A1-mar-dat-obj,28,undefined
1428412115,c108b80334f63126778f7361e81a1251,AcceptabilityJudgment,86,0,t-A1-mar-dat-obj,28,NULL,1,NULL,3428
1428412115,c108b80334f63126778f7361e81a1251,AcceptabilityJudgment,160,0,filler,NULL,undefined
1428412115,c108b80334f63126778f7361e81a1251,AcceptabilityJudgment,160,0,filler,NULL,NULL,1,NULL,1763
1428412115,c108b80334f63126778f7361e81a1251,AcceptabilityJudgment,129,0,t-A2-ada-ext-sbj,NULL,undefined
1428412115,c108b80334f63126778f7361e81a1251,AcceptabilityJudgment,129,0,t-A2-ada-ext-sbj,NULL,NULL,1,NULL,1669
1428412115,c108b80334f63126778f7361e81a1251,AcceptabilityJudgment,104,0,t-A1-ada-nom-obj,34,undefined
1428412115,c108b80334f63126778f7361e81a1251,AcceptabilityJudgment,104,0,t-A1-ada-nom-obj,34,NULL,7,NULL,2845
1428412115,c108b80334f63126778f7361e81a1251,AcceptabilityJudgment,159,0,filler,NULL,undefined
1428412115,c108b80334f63126778f7361e81a1251,AcceptabilityJudgment,159,0,filler,NULL,NULL,1,NULL,1805
1428412115,c108b80334f63126778f7361e81a1251,AcceptabilityJudgment,5,0,t-B1-mar-nom-sbj,1,undefined
1428412115,c108b80334f63126778f7361e81a1251,AcceptabilityJudgment,5,0,t-B1-mar-nom-sbj,1,NULL,1,NULL,3581
1428412115,c108b80334f63126778f7361e81a1251,AcceptabilityJudgment,152,0,filler,NULL,undefined
1428412115,c108b80334f63126778f7361e81a1251,AcceptabilityJudgment,152,0,filler,NULL,NULL,7,NULL,2385
1428412115,c108b80334f63126778f7361e81a1251,AcceptabilityJudgment,116,0,t-A1-jul-nom-obj,38,undefined
1428412115,c108b80334f63126778f7361e81a1251,AcceptabilityJudgment,116,0,t-A1-jul-nom-obj,38,NULL,7,NULL,6226
1428412115,c108b80334f63126778f7361e81a1251,AcceptabilityJudgment,113,0,t-A1-jul-nom-sbj,37,undefined
1428412115,c108b80334f63126778f7361e81a1251,AcceptabilityJudgment,113,0,t-A1-jul-nom-sbj,37,NULL,1,NULL,1606
1428412115,c108b80334f63126778f7361e81a1251,AcceptabilityJudgment,136,0,filler,NULL,undefined
1428412115,c108b80334f63126778f7361e81a1251,AcceptabilityJudgment,136,0,filler,NULL,NULL,1,NULL,1781
1428412115,c108b80334f63126778f7361e81a1251,AcceptabilityJudgment,56,0,t-B2-mar-ext-obj,18,undefined
1428412115,c108b80334f63126778f7361e81a1251,AcceptabilityJudgment,56,0,t-B2-mar-ext-obj,18,NULL,1,NULL,12587
1428412115,c108b80334f63126778f7361e81a1251,AcceptabilityJudgment,11,0,t-B1-mar-dat-sbj,3,undefined
1428412115,c108b80334f63126778f7361e81a1251,AcceptabilityJudgment,11,0,t-B1-mar-dat-sbj,3,NULL,1,NULL,1414
1428412115,c108b80334f63126778f7361e81a1251,AcceptabilityJudgment,157,0,filler,NULL,undefined
1428412115,c108b80334f63126778f7361e81a1251,AcceptabilityJudgment,157,0,filler,NULL,NULL,1,NULL,1218
1428412115,c108b80334f63126778f7361e81a1251,AcceptabilityJudgment,74,0,t-B2-jul-ext-obj,24,undefined
1428412115,c108b80334f63126778f7361e81a1251,AcceptabilityJudgment,74,0,t-B2-jul-ext-obj,24,NULL,1,NULL,3725
1428412115,c108b80334f63126778f7361e81a1251,AcceptabilityJudgment,149,0,filler,NULL,undefined
1428412115,c108b80334f63126778f7361e81a1251,AcceptabilityJudgment,149,0,filler,NULL,NULL,7,NULL,2708
1428412115,c108b80334f63126778f7361e81a1251,AcceptabilityJudgment,92,0,t-A1-pet-nom-obj,30,undefined
1428412115,c108b80334f63126778f7361e81a1251,AcceptabilityJudgment,92,0,t-A1-pet-nom-obj,30,NULL,7,NULL,1983
1428412115,c108b80334f63126778f7361e81a1251,AcceptabilityJudgment,77,0,t-A1-mar-nom-sbj,25,undefined
1428412115,c108b80334f63126778f7361e81a1251,AcceptabilityJudgment,77,0,t-A1-mar-nom-sbj,25,NULL,1,NULL,1782
1428412115,c108b80334f63126778f7361e81a1251,AcceptabilityJudgment,145,0,filler,NULL,undefined
1428412115,c108b80334f63126778f7361e81a1251,AcceptabilityJudgment,145,0,filler,NULL,NULL,7,NULL,3700
1428412115,c108b80334f63126778f7361e81a1251,AcceptabilityJudgment,128,0,t-A2-pet-ext-obj,NULL,undefined
1428412115,c108b80334f63126778f7361e81a1251,AcceptabilityJudgment,128,0,t-A2-pet-ext-obj,NULL,NULL,1,NULL,2469
1428412115,c108b80334f63126778f7361e81a1251,AcceptabilityJudgment,134,0,filler,NULL,undefined
1428412115,c108b80334f63126778f7361e81a1251,AcceptabilityJudgment,134,0,filler,NULL,NULL,7,NULL,2407
1428412115,c108b80334f63126778f7361e81a1251,AcceptabilityJudgment,101,0,t-A1-ada-nom-sbj,33,undefined
1428412115,c108b80334f63126778f7361e81a1251,AcceptabilityJudgment,101,0,t-A1-ada-nom-sbj,33,NULL,1,NULL,2231
1428412115,c108b80334f63126778f7361e81a1251,AcceptabilityJudgment,127,0,t-A2-pet-ext-sbj,NULL,undefined
1428412115,c108b80334f63126778f7361e81a1251,AcceptabilityJudgment,127,0,t-A2-pet-ext-sbj,NULL,NULL,1,NULL,1532
1428412115,c108b80334f63126778f7361e81a1251,AcceptabilityJudgment,161,0,filler,NULL,undefined
1428412115,c108b80334f63126778f7361e81a1251,AcceptabilityJudgment,161,0,filler,NULL,NULL,1,NULL,1213
1428412115,c108b80334f63126778f7361e81a1251,AcceptabilityJudgment,62,0,t-B2-pet-ext-obj,20,undefined
1428412115,c108b80334f63126778f7361e81a1251,AcceptabilityJudgment,62,0,t-B2-pet-ext-obj,20,NULL,1,NULL,4437
1428412115,c108b80334f63126778f7361e81a1251,AcceptabilityJudgment,29,0,t-B1-ada-nom-sbj,9,undefined
1428412115,c108b80334f63126778f7361e81a1251,AcceptabilityJudgment,29,0,t-B1-ada-nom-sbj,9,NULL,1,NULL,1886
1428412115,c108b80334f63126778f7361e81a1251,AcceptabilityJudgment,158,0,filler,NULL,undefined
1428412115,c108b80334f63126778f7361e81a1251,AcceptabilityJudgment,158,0,filler,NULL,NULL,1,NULL,1926
1428412115,c108b80334f63126778f7361e81a1251,AcceptabilityJudgment,131,0,t-A2-jul-ext-sbj,NULL,undefined
1428412115,c108b80334f63126778f7361e81a1251,AcceptabilityJudgment,131,0,t-A2-jul-ext-sbj,NULL,NULL,1,NULL,1290
1428412115,c108b80334f63126778f7361e81a1251,AcceptabilityJudgment,142,0,filler,NULL,undefined
1428412115,c108b80334f63126778f7361e81a1251,AcceptabilityJudgment,142,0,filler,NULL,NULL,1,NULL,3226
1428412115,c108b80334f63126778f7361e81a1251,AcceptabilityJudgment,80,0,t-A1-mar-nom-obj,26,undefined
1428412115,c108b80334f63126778f7361e81a1251,AcceptabilityJudgment,80,0,t-A1-mar-nom-obj,26,NULL,7,NULL,2133
1428412115,c108b80334f63126778f7361e81a1251,AcceptabilityJudgment,126,0,t-A2-mar-ext-obj,NULL,undefined
1428412115,c108b80334f63126778f7361e81a1251,AcceptabilityJudgment,126,0,t-A2-mar-ext-obj,NULL,NULL,1,NULL,2244
1428412115,c108b80334f63126778f7361e81a1251,AcceptabilityJudgment,147,0,filler,NULL,undefined
1428412115,c108b80334f63126778f7361e81a1251,AcceptabilityJudgment,147,0,filler,NULL,NULL,1,NULL,1632
1428412115,c108b80334f63126778f7361e81a1251,AcceptabilityJudgment,119,0,t-A1-jul-dat-sbj,39,undefined
1428412115,c108b80334f63126778f7361e81a1251,AcceptabilityJudgment,119,0,t-A1-jul-dat-sbj,39,NULL,1,NULL,3768
1428412115,c108b80334f63126778f7361e81a1251,AcceptabilityJudgment,138,0,filler,NULL,undefined
1428412115,c108b80334f63126778f7361e81a1251,AcceptabilityJudgment,138,0,filler,NULL,NULL,7,NULL,3529
#
# Results on Tuesday April 07 2015 13:51:54 UTC.
# USER AGENT: Mozilla/5.0 (Windows NT 6.1; WOW64; rv:36.0) Gecko/20100101 Firefox/36.0
# Design number was non-random = 36
#
# Columns below this comment are as follows:
# 1. Time results were received.
# 2. MD5 hash of participant's IP address.
# 3. Controller name.
# 4. Item number.
# 5. Element number.
# 6. Type.
# 7. Group.
# 8. Field name.
# 9. Field value.
1428414715,856b98c34c3e9e0e0be2b29003d5a0e7,Form,1,0,intro,NULL,age,40
1428414715,856b98c34c3e9e0e0be2b29003d5a0e7,Form,1,0,intro,NULL,place of birth,Heves
1428414715,856b98c34c3e9e0e0be2b29003d5a0e7,Form,1,0,intro,NULL,residence,Eger
1428414715,856b98c34c3e9e0e0be2b29003d5a0e7,Form,1,0,intro,NULL,consent,yes
1428414715,856b98c34c3e9e0e0be2b29003d5a0e7,Form,1,0,intro,NULL,sex,male
# The lines below this comment are in groups of 2.
# The formats of the lines in each of these groups are as follows:
#
# Line 1:
#     Col. 1: Time results were received.
#     Col. 2: MD5 hash of participant's IP address.
#     Col. 3: Controller name.
#     Col. 4: Item number.
#     Col. 5: Element number.
#     Col. 6: Type.
#     Col. 7: Group.
#     Col. 8: Sentence (or sentence MD5).
# Line 2:
#     Col. 1: Time results were received.
#     Col. 2: MD5 hash of participant's IP address.
#     Col. 3: Controller name.
#     Col. 4: Item number.
#     Col. 5: Element number.
#     Col. 6: Type.
#     Col. 7: Group.
#     Col. 8: Question (NULL if none).
#     Col. 9: Answer.
#     Col. 10: Whether or not answer was correct (NULL if N/A).
#     Col. 11: Time taken to answer.
1428414715,856b98c34c3e9e0e0be2b29003d5a0e7,AcceptabilityJudgment,2,0,practice,NULL,undefined
1428414715,856b98c34c3e9e0e0be2b29003d5a0e7,AcceptabilityJudgment,2,0,practice,NULL,NULL,7,NULL,12914
1428414715,856b98c34c3e9e0e0be2b29003d5a0e7,AcceptabilityJudgment,3,0,practice,NULL,undefined
1428414715,856b98c34c3e9e0e0be2b29003d5a0e7,AcceptabilityJudgment,3,0,practice,NULL,NULL,7,NULL,4512
1428414715,856b98c34c3e9e0e0be2b29003d5a0e7,AcceptabilityJudgment,4,0,practice,NULL,undefined
1428414715,856b98c34c3e9e0e0be2b29003d5a0e7,AcceptabilityJudgment,4,0,practice,NULL,NULL,2,NULL,11479
1428414715,856b98c34c3e9e0e0be2b29003d5a0e7,AcceptabilityJudgment,38,0,t-B1-ada-dat-obj,12,undefined
1428414715,856b98c34c3e9e0e0be2b29003d5a0e7,AcceptabilityJudgment,38,0,t-B1-ada-dat-obj,12,NULL,3,NULL,7200
1428414715,856b98c34c3e9e0e0be2b29003d5a0e7,AcceptabilityJudgment,14,0,t-B1-mar-dat-obj,4,undefined
1428414715,856b98c34c3e9e0e0be2b29003d5a0e7,AcceptabilityJudgment,14,0,t-B1-mar-dat-obj,4,NULL,5,NULL,8454
1428414715,856b98c34c3e9e0e0be2b29003d5a0e7,AcceptabilityJudgment,155,0,filler,NULL,undefined
1428414715,856b98c34c3e9e0e0be2b29003d5a0e7,AcceptabilityJudgment,155,0,filler,NULL,NULL,1,NULL,7907
1428414715,856b98c34c3e9e0e0be2b29003d5a0e7,AcceptabilityJudgment,128,0,t-A2-pet-ext-obj,NULL,undefined
1428414715,856b98c34c3e9e0e0be2b29003d5a0e7,AcceptabilityJudgment,128,0,t-A2-pet-ext-obj,NULL,NULL,4,NULL,9937
1428414715,856b98c34c3e9e0e0be2b29003d5a0e7,AcceptabilityJudgment,65,0,t-B2-ada-ext-sbj,21,undefined
1428414715,856b98c34c3e9e0e0be2b29003d5a0e7,AcceptabilityJudgment,65,0,t-B2-ada-ext-sbj,21,NULL,4,NULL,6268
1428414715,856b98c34c3e9e0e0be2b29003d5a0e7,AcceptabilityJudgment,151,0,filler,NULL,undefined
1428414715,856b98c34c3e9e0e0be2b29003d5a0e7,AcceptabilityJudgment,151,0,filler,NULL,NULL,7,NULL,3823
1428414715,856b98c34c3e9e0e0be2b29003d5a0e7,AcceptabilityJudgment,131,0,t-A2-jul-ext-sbj,NULL,undefined
1428414715,856b98c34c3e9e0e0be2b29003d5a0e7,AcceptabilityJudgment,131,0,t-A2-jul-ext-sbj,NULL,NULL,1,NULL,6940
1428414715,856b98c34c3e9e0e0be2b29003d5a0e7,AcceptabilityJudgment,158,0,filler,NULL,undefined
1428414715,856b98c34c3e9e0e0be2b29003d5a0e7,AcceptabilityJudgment,158,0,filler,NULL,NULL,1,NULL,3900
1428414715,856b98c34c3e9e0e0be2b29003d5a0e7,AcceptabilityJudgment,56,0,t-B2-mar-ext-obj,18,undefined
1428414715,856b98c34c3e9e0e0be2b29003d5a0e7,AcceptabilityJudgment,56,0,t-B2-mar-ext-obj,18,NULL,7,NULL,4729
1428414715,856b98c34c3e9e0e0be2b29003d5a0e7,AcceptabilityJudgment,101,0,t-A1-ada-nom-sbj,33,undefined
1428414715,856b98c34c3e9e0e0be2b29003d5a0e7,AcceptabilityJudgment,101,0,t-A1-ada-nom-sbj,33,NULL,1,NULL,3723
1428414715,856b98c34c3e9e0e0be2b29003d5a0e7,AcceptabilityJudgment,162,0,filler,NULL,undefined
1428414715,856b98c34c3e9e0e0be2b29003d5a0e7,AcceptabilityJudgment,162,0,filler,NULL,NULL,1,NULL,4448
1428414715,856b98c34c3e9e0e0be2b29003d5a0e7,AcceptabilityJudgment,44,0,t-B1-jul-nom-obj,14,undefined
1428414715,856b98c34c3e9e0e0be2b29003d5a0e7,AcceptabilityJudgment,44,0,t-B1-jul-nom-obj,14,NULL,7,NULL,4931
1428414715,856b98c34c3e9e0e0be2b29003d5a0e7,AcceptabilityJudgment,141,0,filler,NULL,undefined
1428414715,856b98c34c3e9e0e0be2b29003d5a0e7,AcceptabilityJudgment,141,0,filler,NULL,NULL,7,NULL,6372
1428414715,856b98c34c3e9e0e0be2b29003d5a0e7,AcceptabilityJudgment,59,0,t-B2-pet-ext-sbj,19,undefined
1428414715,856b98c34c3e9e0e0be2b29003d5a0e7,AcceptabilityJudgment,59,0,t-B2-pet-ext-sbj,19,NULL,1,NULL,4905
1428414715,856b98c34c3e9e0e0be2b29003d5a0e7,AcceptabilityJudgment,26,0,t-B1-pet-dat-obj,8,undefined
1428414715,856b98c34c3e9e0e0be2b29003d5a0e7,AcceptabilityJudgment,26,0,t-B1-pet-dat-obj,8,NULL,7,NULL,4072
1428414715,856b98c34c3e9e0e0be2b29003d5a0e7,AcceptabilityJudgment,134,0,filler,NULL,undefined
1428414715,856b98c34c3e9e0e0be2b29003d5a0e7,AcceptabilityJudgment,134,0,filler,NULL,NULL,7,NULL,4113
1428414715,856b98c34c3e9e0e0be2b29003d5a0e7,AcceptabilityJudgment,71,0,t-B2-jul-ext-sbj,23,undefined
1428414715,856b98c34c3e9e0e0be2b29003d5a0e7,AcceptabilityJudgment,71,0,t-B2-jul-ext-sbj,23,NULL,1,NULL,4348
1428414715,856b98c34c3e9e0e0be2b29003d5a0e7,AcceptabilityJudgment,62,0,t-B2-pet-ext-obj,20,undefined
1428414715,856b98c34c3e9e0e0be2b29003d5a0e7,AcceptabilityJudgment,62,0,t-B2-pet-ext-obj,20,NULL,7,NULL,3879
1428414715,856b98c34c3e9e0e0be2b29003d5a0e7,AcceptabilityJudgment,138,0,filler,NULL,undefined
1428414715,856b98c34c3e9e0e0be2b29003d5a0e7,AcceptabilityJudgment,138,0,filler,NULL,NULL,7,NULL,3799
1428414715,856b98c34c3e9e0e0be2b29003d5a0e7,AcceptabilityJudgment,53,0,t-B2-mar-ext-sbj,17,undefined
1428414715,856b98c34c3e9e0e0be2b29003d5a0e7,AcceptabilityJudgment,53,0,t-B2-mar-ext-sbj,17,NULL,7,NULL,4960
1428414715,856b98c34c3e9e0e0be2b29003d5a0e7,AcceptabilityJudgment,135,0,filler,NULL,undefined
1428414715,856b98c34c3e9e0e0be2b29003d5a0e7,AcceptabilityJudgment,135,0,filler,NULL,NULL,7,NULL,4407
1428414715,856b98c34c3e9e0e0be2b29003d5a0e7,AcceptabilityJudgment,92,0,t-A1-pet-nom-obj,30,undefined
1428414715,856b98c34c3e9e0e0be2b29003d5a0e7,AcceptabilityJudgment,92,0,t-A1-pet-nom-obj,30,NULL,7,NULL,2413
1428414715,856b98c34c3e9e0e0be2b29003d5a0e7,AcceptabilityJudgment,35,0,t-B1-ada-dat-sbj,11,undefined
1428414715,856b98c34c3e9e0e0be2b29003d5a0e7,AcceptabilityJudgment,35,0,t-B1-ada-dat-sbj,11,NULL,7,NULL,3061
1428414715,856b98c34c3e9e0e0be2b29003d5a0e7,AcceptabilityJudgment,161,0,filler,NULL,undefined
1428414715,856b98c34c3e9e0e0be2b29003d5a0e7,AcceptabilityJudgment,161,0,filler,NULL,NULL,1,NULL,3170
1428414715,856b98c34c3e9e0e0be2b29003d5a0e7,AcceptabilityJudgment,116,0,t-A1-jul-nom-obj,38,undefined
1428414715,856b98c34c3e9e0e0be2b29003d5a0e7,AcceptabilityJudgment,116,0,t-A1-jul-nom-obj,38,NULL,7,NULL,4351
1428414715,856b98c34c3e9e0e0be2b29003d5a0e7,AcceptabilityJudgment,133,0,filler,NULL,undefined
1428414715,856b98c34c3e9e0e0be2b29003d5a0e7,AcceptabilityJudgment,133,0,filler,NULL,NULL,7,NULL,3265
1428414715,856b98c34c3e9e0e0be2b29003d5a0e7,AcceptabilityJudgment,23,0,t-B1-pet-dat-sbj,7,undefined
1428414715,856b98c34c3e9e0e0be2b29003d5a0e7,AcceptabilityJudgment,23,0,t-B1-pet-dat-sbj,7,NULL,7,NULL,3771
1428414715,856b98c34c3e9e0e0be2b29003d5a0e7,AcceptabilityJudgment,129,0,t-A2-ada-ext-sbj,NULL,undefined
1428414715,856b98c34c3e9e0e0be2b29003d5a0e7,AcceptabilityJudgment,129,0,t-A2-ada-ext-sbj,NULL,NULL,7,NULL,5002
1428414715,856b98c34c3e9e0e0be2b29003d5a0e7,AcceptabilityJudgment,139,0,filler,NULL,undefined
1428414715,856b98c34c3e9e0e0be2b29003d5a0e7,AcceptabilityJudgment,139,0,filler,NULL,NULL,6,NULL,4763
1428414715,856b98c34c3e9e0e0be2b29003d5a0e7,AcceptabilityJudgment,89,0,t-A1-pet-nom-sbj,29,undefined
1428414715,856b98c34c3e9e0e0be2b29003d5a0e7,AcceptabilityJudgment,89,0,t-A1-pet-nom-sbj,29,NULL,7,NULL,2640
1428414715,856b98c34c3e9e0e0be2b29003d5a0e7,AcceptabilityJudgment,11,0,t-B1-mar-dat-sbj,3,undefined
1428414715,856b98c34c3e9e0e0be2b29003d5a0e7,AcceptabilityJudgment,11,0,t-B1-mar-dat-sbj,3,NULL,7,NULL,4191
1428414715,856b98c34c3e9e0e0be2b29003d5a0e7,AcceptabilityJudgment,144,0,filler,NULL,undefined
1428414715,856b98c34c3e9e0e0be2b29003d5a0e7,AcceptabilityJudgment,144,0,filler,NULL,NULL,6,NULL,3846
1428414715,856b98c34c3e9e0e0be2b29003d5a0e7,AcceptabilityJudgment,77,0,t-A1-mar-nom-sbj,25,undefined
1428414715,856b98c34c3e9e0e0be2b29003d5a0e7,AcceptabilityJudgment,77,0,t-A1-mar-nom-sbj,25,NULL,1,NULL,2484
1428414715,856b98c34c3e9e0e0be2b29003d5a0e7,AcceptabilityJudgment,145,0,filler,NULL,undefined
1428414715,856b98c34c3e9e0e0be2b29003d5a0e7,AcceptabilityJudgment,145,0,filler,NULL,NULL,7,NULL,4544
1428414715,856b98c34c3e9e0e0be2b29003d5a0e7,AcceptabilityJudgment,8,0,t-B1-mar-nom-obj,2,undefined
1428414715,856b98c34c3e9e0e0be2b29003d5a0e7,AcceptabilityJudgment,8,0,t-B1-mar-nom-obj,2,NULL,7,NULL,2790
1428414715,856b98c34c3e9e0e0be2b29003d5a0e7,AcceptabilityJudgment,68,0,t-B2-ada-ext-obj,22,undefined
1428414715,856b98c34c3e9e0e0be2b29003d5a0e7,AcceptabilityJudgment,68,0,t-B2-ada-ext-obj,22,NULL,1,NULL,2818
1428414715,856b98c34c3e9e0e0be2b29003d5a0e7,AcceptabilityJudgment,160,0,filler,NULL,undefined
1428414715,856b98c34c3e9e0e0be2b29003d5a0e7,AcceptabilityJudgment,160,0,filler,NULL,NULL,1,NULL,3388
1428414715,856b98c34c3e9e0e0be2b29003d5a0e7,AcceptabilityJudgment,32,0,t-B1-ada-nom-obj,10,undefined
1428414715,856b98c34c3e9e0e0be2b29003d5a0e7,AcceptabilityJudgment,32,0,t-B1-ada-nom-obj,10,NULL,7,NULL,4384
1428414715,856b98c34c3e9e0e0be2b29003d5a0e7,AcceptabilityJudgment,147,0,filler,NULL,undefined
1428414715,856b98c34c3e9e0e0be2b29003d5a0e7,AcceptabilityJudgment,147,0,filler,NULL,NULL,7,NULL,3089
1428414715,856b98c34c3e9e0e0be2b29003d5a0e7,AcceptabilityJudgment,5,0,t-B1-mar-nom-sbj,1,undefined
1428414715,856b98c34c3e9e0e0be2b29003d5a0e7,AcceptabilityJudgment,5,0,t-B1-mar-nom-sbj,1,NULL,1,NULL,2804
1428414715,856b98c34c3e9e0e0be2b29003d5a0e7,AcceptabilityJudgment,47,0,t-B1-jul-dat-sbj,15,undefined
1428414715,856b98c34c3e9e0e0be2b29003d5a0e7,AcceptabilityJudgment,47,0,t-B1-jul-dat-sbj,15,NULL,1,NULL,3185
1428414715,856b98c34c3e9e0e0be2b29003d5a0e7,AcceptabilityJudgment,150,0,filler,NULL,undefined
1428414715,856b98c34c3e9e0e0be2b29003d5a0e7,AcceptabilityJudgment,150,0,filler,NULL,NULL,7,NULL,3603
1428414715,856b98c34c3e9e0e0be2b29003d5a0e7,AcceptabilityJudgment,107,0,t-A1-ada-dat-sbj,35,undefined
1428414715,856b98c34c3e9e0e0be2b29003d5a0e7,AcceptabilityJudgment,107,0,t-A1-ada-dat-sbj,35,NULL,7,NULL,5616
1428414715,856b98c34c3e9e0e0be2b29003d5a0e7,AcceptabilityJudgment,41,0,t-B1-jul-nom-sbj,13,undefined
1428414715,856b98c34c3e9e0e0be2b29003d5a0e7,AcceptabilityJudgment,41,0,t-B1-jul-nom-sbj,13,NULL,1,NULL,4339
1428414715,856b98c34c3e9e0e0be2b29003d5a0e7,AcceptabilityJudgment,152,0,filler,NULL,undefined
1428414715,856b98c34c3e9e0e0be2b29003d5a0e7,AcceptabilityJudgment,152,0,filler,NULL,NULL,7,NULL,2718
1428414715,856b98c34c3e9e0e0be2b29003d5a0e7,AcceptabilityJudgment,113,0,t-A1-jul-nom-sbj,37,undefined
1428414715,856b98c34c3e9e0e0be2b29003d5a0e7,AcceptabilityJudgment,113,0,t-A1-jul-nom-sbj,37,NULL,1,NULL,3195
1428414715,856b98c34c3e9e0e0be2b29003d5a0e7,AcceptabilityJudgment,159,0,filler,NULL,undefined
1428414715,856b98c34c3e9e0e0be2b29003d5a0e7,AcceptabilityJudgment,159,0,filler,NULL,NULL,1,NULL,2400
1428414715,856b98c34c3e9e0e0be2b29003d5a0e7,AcceptabilityJudgment,95,0,t-A1-pet-dat-sbj,31,undefined
1428414715,856b98c34c3e9e0e0be2b29003d5a0e7,AcceptabilityJudgment,95,0,t-A1-pet-dat-sbj,31,NULL,5,NULL,4283
1428414715,856b98c34c3e9e0e0be2b29003d5a0e7,AcceptabilityJudgment,132,0,t-A2-jul-ext-obj,NULL,undefined
1428414715,856b98c34c3e9e0e0be2b29003d5a0e7,AcceptabilityJudgment,132,0,t-A2-jul-ext-obj,NULL,NULL,1,NULL,2596
1428414715,856b98c34c3e9e0e0be2b29003d5a0e7,AcceptabilityJudgment,142,0,filler,NULL,undefined
1428414715,856b98c34c3e9e0e0be2b29003d5a0e7,AcceptabilityJudgment,142,0,filler,NULL,NULL,7,NULL,2848
1428414715,856b98c34c3e9e0e0be2b29003d5a0e7,AcceptabilityJudgment,80,0,t-A1-mar-nom-obj,26,undefined
1428414715,856b98c34c3e9e0e0be2b29003d5a0e7,AcceptabilityJudgment,80,0,t-A1-mar-nom-obj,26,NULL,7,NULL,2581
1428414715,856b98c34c3e9e0e0be2b29003d5a0e7,AcceptabilityJudgment,157,0,filler,NULL,undefined
1428414715,856b98c34c3e9e0e0be2b29003d5a0e7,AcceptabilityJudgment,157,0,filler,NULL,NULL,1,NULL,2317
1428414715,856b98c34c3e9e0e0be2b29003d5a0e7,AcceptabilityJudgment,104,0,t-A1-ada-nom-obj,34,undefined
1428414715,856b98c34c3e9e0e0be2b29003d5a0e7,AcceptabilityJudgment,104,0,t-A1-ada-nom-obj,34,NULL,1,NULL,3572
1428414715,856b98c34c3e9e0e0be2b29003d5a0e7,AcceptabilityJudgment,126,0,t-A2-mar-ext-obj,NULL,undefined
1428414715,856b98c34c3e9e0e0be2b29003d5a0e7,AcceptabilityJudgment,126,0,t-A2-mar-ext-obj,NULL,NULL,7,NULL,4254
1428414715,856b98c34c3e9e0e0be2b29003d5a0e7,AcceptabilityJudgment,156,0,filler,NULL,undefined
1428414715,856b98c34c3e9e0e0be2b29003d5a0e7,AcceptabilityJudgment,156,0,filler,NULL,NULL,1,NULL,2608
1428414715,856b98c34c3e9e0e0be2b29003d5a0e7,AcceptabilityJudgment,110,0,t-A1-ada-dat-obj,36,undefined
1428414715,856b98c34c3e9e0e0be2b29003d5a0e7,AcceptabilityJudgment,110,0,t-A1-ada-dat-obj,36,NULL,1,NULL,2222
1428414715,856b98c34c3e9e0e0be2b29003d5a0e7,AcceptabilityJudgment,83,0,t-A1-mar-dat-sbj,27,undefined
1428414715,856b98c34c3e9e0e0be2b29003d5a0e7,AcceptabilityJudgment,83,0,t-A1-mar-dat-sbj,27,NULL,1,NULL,3064
1428414715,856b98c34c3e9e0e0be2b29003d5a0e7,AcceptabilityJudgment,146,0,filler,NULL,undefined
1428414715,856b98c34c3e9e0e0be2b29003d5a0e7,AcceptabilityJudgment,146,0,filler,NULL,NULL,7,NULL,4264
1428414715,856b98c34c3e9e0e0be2b29003d5a0e7,AcceptabilityJudgment,86,0,t-A1-mar-dat-obj,28,undefined
1428414715,856b98c34c3e9e0e0be2b29003d5a0e7,AcceptabilityJudgment,86,0,t-A1-mar-dat-obj,28,NULL,5,NULL,4180
1428414715,856b98c34c3e9e0e0be2b29003d5a0e7,AcceptabilityJudgment,149,0,filler,NULL,undefined
1428414715,856b98c34c3e9e0e0be2b29003d5a0e7,AcceptabilityJudgment,149,0,filler,NULL,NULL,7,NULL,2577
1428414715,856b98c34c3e9e0e0be2b29003d5a0e7,AcceptabilityJudgment,98,0,t-A1-pet-dat-obj,32,undefined
1428414715,856b98c34c3e9e0e0be2b29003d5a0e7,AcceptabilityJudgment,98,0,t-A1-pet-dat-obj,32,NULL,7,NULL,2419
1428414715,856b98c34c3e9e0e0be2b29003d5a0e7,AcceptabilityJudgment,127,0,t-A2-pet-ext-sbj,NULL,undefined
1428414715,856b98c34c3e9e0e0be2b29003d5a0e7,AcceptabilityJudgment,127,0,t-A2-pet-ext-sbj,NULL,NULL,1,NULL,5471
1428414715,856b98c34c3e9e0e0be2b29003d5a0e7,AcceptabilityJudgment,154,0,filler,NULL,undefined
1428414715,856b98c34c3e9e0e0be2b29003d5a0e7,AcceptabilityJudgment,154,0,filler,NULL,NULL,1,NULL,3935
1428414715,856b98c34c3e9e0e0be2b29003d5a0e7,AcceptabilityJudgment,29,0,t-B1-ada-nom-sbj,9,undefined
1428414715,856b98c34c3e9e0e0be2b29003d5a0e7,AcceptabilityJudgment,29,0,t-B1-ada-nom-sbj,9,NULL,1,NULL,2551
1428414715,856b98c34c3e9e0e0be2b29003d5a0e7,AcceptabilityJudgment,137,0,filler,NULL,undefined
1428414715,856b98c34c3e9e0e0be2b29003d5a0e7,AcceptabilityJudgment,137,0,filler,NULL,NULL,7,NULL,4501
1428414715,856b98c34c3e9e0e0be2b29003d5a0e7,AcceptabilityJudgment,122,0,t-A1-jul-dat-obj,40,undefined
1428414715,856b98c34c3e9e0e0be2b29003d5a0e7,AcceptabilityJudgment,122,0,t-A1-jul-dat-obj,40,NULL,6,NULL,3917
1428414715,856b98c34c3e9e0e0be2b29003d5a0e7,AcceptabilityJudgment,50,0,t-B1-jul-dat-obj,16,undefined
1428414715,856b98c34c3e9e0e0be2b29003d5a0e7,AcceptabilityJudgment,50,0,t-B1-jul-dat-obj,16,NULL,7,NULL,2340
1428414715,856b98c34c3e9e0e0be2b29003d5a0e7,AcceptabilityJudgment,136,0,filler,NULL,undefined
1428414715,856b98c34c3e9e0e0be2b29003d5a0e7,AcceptabilityJudgment,136,0,filler,NULL,NULL,7,NULL,1782
1428414715,856b98c34c3e9e0e0be2b29003d5a0e7,AcceptabilityJudgment,20,0,t-B1-pet-nom-obj,6,undefined
1428414715,856b98c34c3e9e0e0be2b29003d5a0e7,AcceptabilityJudgment,20,0,t-B1-pet-nom-obj,6,NULL,6,NULL,5189
1428414715,856b98c34c3e9e0e0be2b29003d5a0e7,AcceptabilityJudgment,17,0,t-B1-pet-nom-sbj,5,undefined
1428414715,856b98c34c3e9e0e0be2b29003d5a0e7,AcceptabilityJudgment,17,0,t-B1-pet-nom-sbj,5,NULL,6,NULL,2824
1428414715,856b98c34c3e9e0e0be2b29003d5a0e7,AcceptabilityJudgment,148,0,filler,NULL,undefined
1428414715,856b98c34c3e9e0e0be2b29003d5a0e7,AcceptabilityJudgment,148,0,filler,NULL,NULL,7,NULL,2158
1428414715,856b98c34c3e9e0e0be2b29003d5a0e7,AcceptabilityJudgment,130,0,t-A2-ada-ext-obj,NULL,undefined
1428414715,856b98c34c3e9e0e0be2b29003d5a0e7,AcceptabilityJudgment,130,0,t-A2-ada-ext-obj,NULL,NULL,6,NULL,3794
1428414715,856b98c34c3e9e0e0be2b29003d5a0e7,AcceptabilityJudgment,153,0,filler,NULL,undefined
1428414715,856b98c34c3e9e0e0be2b29003d5a0e7,AcceptabilityJudgment,153,0,filler,NULL,NULL,7,NULL,3236
1428414715,856b98c34c3e9e0e0be2b29003d5a0e7,AcceptabilityJudgment,125,0,t-A2-mar-ext-sbj,NULL,undefined
1428414715,856b98c34c3e9e0e0be2b29003d5a0e7,AcceptabilityJudgment,125,0,t-A2-mar-ext-sbj,NULL,NULL,3,NULL,3922
1428414715,856b98c34c3e9e0e0be2b29003d5a0e7,AcceptabilityJudgment,119,0,t-A1-jul-dat-sbj,39,undefined
1428414715,856b98c34c3e9e0e0be2b29003d5a0e7,AcceptabilityJudgment,119,0,t-A1-jul-dat-sbj,39,NULL,1,NULL,3106
1428414715,856b98c34c3e9e0e0be2b29003d5a0e7,AcceptabilityJudgment,143,0,filler,NULL,undefined
1428414715,856b98c34c3e9e0e0be2b29003d5a0e7,AcceptabilityJudgment,143,0,filler,NULL,NULL,7,NULL,1904
1428414715,856b98c34c3e9e0e0be2b29003d5a0e7,AcceptabilityJudgment,74,0,t-B2-jul-ext-obj,24,undefined
1428414715,856b98c34c3e9e0e0be2b29003d5a0e7,AcceptabilityJudgment,74,0,t-B2-jul-ext-obj,24,NULL,6,NULL,5020
1428414715,856b98c34c3e9e0e0be2b29003d5a0e7,AcceptabilityJudgment,140,0,filler,NULL,undefined
1428414715,856b98c34c3e9e0e0be2b29003d5a0e7,AcceptabilityJudgment,140,0,filler,NULL,NULL,7,NULL,4251
#
# Results on Tuesday April 07 2015 13:56:14 UTC.
# USER AGENT: Mozilla/5.0 (Windows NT 6.1; WOW64) AppleWebKit/537.36 (KHTML, like Gecko) Chrome/41.0.2272.118 Safari/537.36
# Design number was non-random = 36
#
# Columns below this comment are as follows:
# 1. Time results were received.
# 2. MD5 hash of participant's IP address.
# 3. Controller name.
# 4. Item number.
# 5. Element number.
# 6. Type.
# 7. Group.
# 8. Field name.
# 9. Field value.
1428414975,d1b0b032b2288b39ef1d013776b90641,Form,1,0,intro,NULL,age,27
1428414975,d1b0b032b2288b39ef1d013776b90641,Form,1,0,intro,NULL,place of birth,Hajdú-Bihar
1428414975,d1b0b032b2288b39ef1d013776b90641,Form,1,0,intro,NULL,residence,Budapest
1428414975,d1b0b032b2288b39ef1d013776b90641,Form,1,0,intro,NULL,consent,yes
1428414975,d1b0b032b2288b39ef1d013776b90641,Form,1,0,intro,NULL,sex,male
# The lines below this comment are in groups of 2.
# The formats of the lines in each of these groups are as follows:
#
# Line 1:
#     Col. 1: Time results were received.
#     Col. 2: MD5 hash of participant's IP address.
#     Col. 3: Controller name.
#     Col. 4: Item number.
#     Col. 5: Element number.
#     Col. 6: Type.
#     Col. 7: Group.
#     Col. 8: Sentence (or sentence MD5).
# Line 2:
#     Col. 1: Time results were received.
#     Col. 2: MD5 hash of participant's IP address.
#     Col. 3: Controller name.
#     Col. 4: Item number.
#     Col. 5: Element number.
#     Col. 6: Type.
#     Col. 7: Group.
#     Col. 8: Question (NULL if none).
#     Col. 9: Answer.
#     Col. 10: Whether or not answer was correct (NULL if N/A).
#     Col. 11: Time taken to answer.
1428414975,d1b0b032b2288b39ef1d013776b90641,AcceptabilityJudgment,2,0,practice,NULL,undefined
1428414975,d1b0b032b2288b39ef1d013776b90641,AcceptabilityJudgment,2,0,practice,NULL,NULL,7,NULL,12957
1428414975,d1b0b032b2288b39ef1d013776b90641,AcceptabilityJudgment,3,0,practice,NULL,undefined
1428414975,d1b0b032b2288b39ef1d013776b90641,AcceptabilityJudgment,3,0,practice,NULL,NULL,7,NULL,4329
1428414975,d1b0b032b2288b39ef1d013776b90641,AcceptabilityJudgment,4,0,practice,NULL,undefined
1428414975,d1b0b032b2288b39ef1d013776b90641,AcceptabilityJudgment,4,0,practice,NULL,NULL,1,NULL,7266
1428414975,d1b0b032b2288b39ef1d013776b90641,AcceptabilityJudgment,59,0,t-B2-pet-ext-sbj,19,undefined
1428414975,d1b0b032b2288b39ef1d013776b90641,AcceptabilityJudgment,59,0,t-B2-pet-ext-sbj,19,NULL,1,NULL,4052
1428414975,d1b0b032b2288b39ef1d013776b90641,AcceptabilityJudgment,8,0,t-B1-mar-nom-obj,2,undefined
1428414975,d1b0b032b2288b39ef1d013776b90641,AcceptabilityJudgment,8,0,t-B1-mar-nom-obj,2,NULL,4,NULL,8086
1428414975,d1b0b032b2288b39ef1d013776b90641,AcceptabilityJudgment,142,0,filler,NULL,undefined
1428414975,d1b0b032b2288b39ef1d013776b90641,AcceptabilityJudgment,142,0,filler,NULL,NULL,6,NULL,8157
1428414975,d1b0b032b2288b39ef1d013776b90641,AcceptabilityJudgment,62,0,t-B2-pet-ext-obj,20,undefined
1428414975,d1b0b032b2288b39ef1d013776b90641,AcceptabilityJudgment,62,0,t-B2-pet-ext-obj,20,NULL,1,NULL,10596
1428414975,d1b0b032b2288b39ef1d013776b90641,AcceptabilityJudgment,44,0,t-B1-jul-nom-obj,14,undefined
1428414975,d1b0b032b2288b39ef1d013776b90641,AcceptabilityJudgment,44,0,t-B1-jul-nom-obj,14,NULL,5,NULL,10532
1428414975,d1b0b032b2288b39ef1d013776b90641,AcceptabilityJudgment,159,0,filler,NULL,undefined
1428414975,d1b0b032b2288b39ef1d013776b90641,AcceptabilityJudgment,159,0,filler,NULL,NULL,1,NULL,3367
1428414975,d1b0b032b2288b39ef1d013776b90641,AcceptabilityJudgment,77,0,t-A1-mar-nom-sbj,25,undefined
1428414975,d1b0b032b2288b39ef1d013776b90641,AcceptabilityJudgment,77,0,t-A1-mar-nom-sbj,25,NULL,1,NULL,2306
1428414975,d1b0b032b2288b39ef1d013776b90641,AcceptabilityJudgment,138,0,filler,NULL,undefined
1428414975,d1b0b032b2288b39ef1d013776b90641,AcceptabilityJudgment,138,0,filler,NULL,NULL,3,NULL,4975
1428414975,d1b0b032b2288b39ef1d013776b90641,AcceptabilityJudgment,98,0,t-A1-pet-dat-obj,32,undefined
1428414975,d1b0b032b2288b39ef1d013776b90641,AcceptabilityJudgment,98,0,t-A1-pet-dat-obj,32,NULL,2,NULL,6510
1428414975,d1b0b032b2288b39ef1d013776b90641,AcceptabilityJudgment,80,0,t-A1-mar-nom-obj,26,undefined
1428414975,d1b0b032b2288b39ef1d013776b90641,AcceptabilityJudgment,80,0,t-A1-mar-nom-obj,26,NULL,7,NULL,3776
1428414975,d1b0b032b2288b39ef1d013776b90641,AcceptabilityJudgment,140,0,filler,NULL,undefined
1428414975,d1b0b032b2288b39ef1d013776b90641,AcceptabilityJudgment,140,0,filler,NULL,NULL,3,NULL,24693
1428414975,d1b0b032b2288b39ef1d013776b90641,AcceptabilityJudgment,38,0,t-B1-ada-dat-obj,12,undefined
1428414975,d1b0b032b2288b39ef1d013776b90641,AcceptabilityJudgment,38,0,t-B1-ada-dat-obj,12,NULL,2,NULL,4273
1428414975,d1b0b032b2288b39ef1d013776b90641,AcceptabilityJudgment,135,0,filler,NULL,undefined
1428414975,d1b0b032b2288b39ef1d013776b90641,AcceptabilityJudgment,135,0,filler,NULL,NULL,7,NULL,25889
1428414975,d1b0b032b2288b39ef1d013776b90641,AcceptabilityJudgment,41,0,t-B1-jul-nom-sbj,13,undefined
1428414975,d1b0b032b2288b39ef1d013776b90641,AcceptabilityJudgment,41,0,t-B1-jul-nom-sbj,13,NULL,2,NULL,6117
1428414975,d1b0b032b2288b39ef1d013776b90641,AcceptabilityJudgment,23,0,t-B1-pet-dat-sbj,7,undefined
1428414975,d1b0b032b2288b39ef1d013776b90641,AcceptabilityJudgment,23,0,t-B1-pet-dat-sbj,7,NULL,2,NULL,4893
1428414975,d1b0b032b2288b39ef1d013776b90641,AcceptabilityJudgment,137,0,filler,NULL,undefined
1428414975,d1b0b032b2288b39ef1d013776b90641,AcceptabilityJudgment,137,0,filler,NULL,NULL,6,NULL,12445
1428414975,d1b0b032b2288b39ef1d013776b90641,AcceptabilityJudgment,26,0,t-B1-pet-dat-obj,8,undefined
1428414975,d1b0b032b2288b39ef1d013776b90641,AcceptabilityJudgment,26,0,t-B1-pet-dat-obj,8,NULL,5,NULL,8446
1428414975,d1b0b032b2288b39ef1d013776b90641,AcceptabilityJudgment,50,0,t-B1-jul-dat-obj,16,undefined
1428414975,d1b0b032b2288b39ef1d013776b90641,AcceptabilityJudgment,50,0,t-B1-jul-dat-obj,16,NULL,5,NULL,8309
1428414975,d1b0b032b2288b39ef1d013776b90641,AcceptabilityJudgment,143,0,filler,NULL,undefined
1428414975,d1b0b032b2288b39ef1d013776b90641,AcceptabilityJudgment,143,0,filler,NULL,NULL,1,NULL,24398
1428414975,d1b0b032b2288b39ef1d013776b90641,AcceptabilityJudgment,104,0,t-A1-ada-nom-obj,34,undefined
1428414975,d1b0b032b2288b39ef1d013776b90641,AcceptabilityJudgment,104,0,t-A1-ada-nom-obj,34,NULL,7,NULL,15973
1428414975,d1b0b032b2288b39ef1d013776b90641,AcceptabilityJudgment,162,0,filler,NULL,undefined
1428414975,d1b0b032b2288b39ef1d013776b90641,AcceptabilityJudgment,162,0,filler,NULL,NULL,1,NULL,4679
1428414975,d1b0b032b2288b39ef1d013776b90641,AcceptabilityJudgment,74,0,t-B2-jul-ext-obj,24,undefined
1428414975,d1b0b032b2288b39ef1d013776b90641,AcceptabilityJudgment,74,0,t-B2-jul-ext-obj,24,NULL,7,NULL,22668
1428414975,d1b0b032b2288b39ef1d013776b90641,AcceptabilityJudgment,11,0,t-B1-mar-dat-sbj,3,undefined
1428414975,d1b0b032b2288b39ef1d013776b90641,AcceptabilityJudgment,11,0,t-B1-mar-dat-sbj,3,NULL,1,NULL,4415
1428414975,d1b0b032b2288b39ef1d013776b90641,AcceptabilityJudgment,147,0,filler,NULL,undefined
1428414975,d1b0b032b2288b39ef1d013776b90641,AcceptabilityJudgment,147,0,filler,NULL,NULL,5,NULL,18701
1428414975,d1b0b032b2288b39ef1d013776b90641,AcceptabilityJudgment,35,0,t-B1-ada-dat-sbj,11,undefined
1428414975,d1b0b032b2288b39ef1d013776b90641,AcceptabilityJudgment,35,0,t-B1-ada-dat-sbj,11,NULL,1,NULL,5752
1428414975,d1b0b032b2288b39ef1d013776b90641,AcceptabilityJudgment,141,0,filler,NULL,undefined
1428414975,d1b0b032b2288b39ef1d013776b90641,AcceptabilityJudgment,141,0,filler,NULL,NULL,6,NULL,20043
1428414975,d1b0b032b2288b39ef1d013776b90641,AcceptabilityJudgment,89,0,t-A1-pet-nom-sbj,29,undefined
1428414975,d1b0b032b2288b39ef1d013776b90641,AcceptabilityJudgment,89,0,t-A1-pet-nom-sbj,29,NULL,1,NULL,3637
1428414975,d1b0b032b2288b39ef1d013776b90641,AcceptabilityJudgment,125,0,t-A2-mar-ext-sbj,NULL,undefined
1428414975,d1b0b032b2288b39ef1d013776b90641,AcceptabilityJudgment,125,0,t-A2-mar-ext-sbj,NULL,NULL,1,NULL,5292
1428414975,d1b0b032b2288b39ef1d013776b90641,AcceptabilityJudgment,153,0,filler,NULL,undefined
1428414975,d1b0b032b2288b39ef1d013776b90641,AcceptabilityJudgment,153,0,filler,NULL,NULL,7,NULL,5200
1428414975,d1b0b032b2288b39ef1d013776b90641,AcceptabilityJudgment,92,0,t-A1-pet-nom-obj,30,undefined
1428414975,d1b0b032b2288b39ef1d013776b90641,AcceptabilityJudgment,92,0,t-A1-pet-nom-obj,30,NULL,7,NULL,4391
1428414975,d1b0b032b2288b39ef1d013776b90641,AcceptabilityJudgment,71,0,t-B2-jul-ext-sbj,23,undefined
1428414975,d1b0b032b2288b39ef1d013776b90641,AcceptabilityJudgment,71,0,t-B2-jul-ext-sbj,23,NULL,5,NULL,7636
1428414975,d1b0b032b2288b39ef1d013776b90641,AcceptabilityJudgment,144,0,filler,NULL,undefined
1428414975,d1b0b032b2288b39ef1d013776b90641,AcceptabilityJudgment,144,0,filler,NULL,NULL,6,NULL,9679
1428414975,d1b0b032b2288b39ef1d013776b90641,AcceptabilityJudgment,14,0,t-B1-mar-dat-obj,4,undefined
1428414975,d1b0b032b2288b39ef1d013776b90641,AcceptabilityJudgment,14,0,t-B1-mar-dat-obj,4,NULL,6,NULL,3729
1428414975,d1b0b032b2288b39ef1d013776b90641,AcceptabilityJudgment,148,0,filler,NULL,undefined
1428414975,d1b0b032b2288b39ef1d013776b90641,AcceptabilityJudgment,148,0,filler,NULL,NULL,7,NULL,4247
1428414975,d1b0b032b2288b39ef1d013776b90641,AcceptabilityJudgment,68,0,t-B2-ada-ext-obj,22,undefined
1428414975,d1b0b032b2288b39ef1d013776b90641,AcceptabilityJudgment,68,0,t-B2-ada-ext-obj,22,NULL,6,NULL,8207
1428414975,d1b0b032b2288b39ef1d013776b90641,AcceptabilityJudgment,29,0,t-B1-ada-nom-sbj,9,undefined
1428414975,d1b0b032b2288b39ef1d013776b90641,AcceptabilityJudgment,29,0,t-B1-ada-nom-sbj,9,NULL,2,NULL,3270
1428414975,d1b0b032b2288b39ef1d013776b90641,AcceptabilityJudgment,133,0,filler,NULL,undefined
1428414975,d1b0b032b2288b39ef1d013776b90641,AcceptabilityJudgment,133,0,filler,NULL,NULL,7,NULL,10945
1428414975,d1b0b032b2288b39ef1d013776b90641,AcceptabilityJudgment,119,0,t-A1-jul-dat-sbj,39,undefined
1428414975,d1b0b032b2288b39ef1d013776b90641,AcceptabilityJudgment,119,0,t-A1-jul-dat-sbj,39,NULL,1,NULL,7660
1428414975,d1b0b032b2288b39ef1d013776b90641,AcceptabilityJudgment,149,0,filler,NULL,undefined
1428414975,d1b0b032b2288b39ef1d013776b90641,AcceptabilityJudgment,149,0,filler,NULL,NULL,6,NULL,6718
1428414975,d1b0b032b2288b39ef1d013776b90641,AcceptabilityJudgment,56,0,t-B2-mar-ext-obj,18,undefined
1428414975,d1b0b032b2288b39ef1d013776b90641,AcceptabilityJudgment,56,0,t-B2-mar-ext-obj,18,NULL,6,NULL,27824
1428414975,d1b0b032b2288b39ef1d013776b90641,AcceptabilityJudgment,65,0,t-B2-ada-ext-sbj,21,undefined
1428414975,d1b0b032b2288b39ef1d013776b90641,AcceptabilityJudgment,65,0,t-B2-ada-ext-sbj,21,NULL,3,NULL,6760
1428414975,d1b0b032b2288b39ef1d013776b90641,AcceptabilityJudgment,158,0,filler,NULL,undefined
1428414975,d1b0b032b2288b39ef1d013776b90641,AcceptabilityJudgment,158,0,filler,NULL,NULL,1,NULL,5548
1428414975,d1b0b032b2288b39ef1d013776b90641,AcceptabilityJudgment,32,0,t-B1-ada-nom-obj,10,undefined
1428414975,d1b0b032b2288b39ef1d013776b90641,AcceptabilityJudgment,32,0,t-B1-ada-nom-obj,10,NULL,7,NULL,3854
1428414975,d1b0b032b2288b39ef1d013776b90641,AcceptabilityJudgment,131,0,t-A2-jul-ext-sbj,NULL,undefined
1428414975,d1b0b032b2288b39ef1d013776b90641,AcceptabilityJudgment,131,0,t-A2-jul-ext-sbj,NULL,NULL,1,NULL,3538
1428414975,d1b0b032b2288b39ef1d013776b90641,AcceptabilityJudgment,160,0,filler,NULL,undefined
1428414975,d1b0b032b2288b39ef1d013776b90641,AcceptabilityJudgment,160,0,filler,NULL,NULL,1,NULL,20800
1428414975,d1b0b032b2288b39ef1d013776b90641,AcceptabilityJudgment,83,0,t-A1-mar-dat-sbj,27,undefined
1428414975,d1b0b032b2288b39ef1d013776b90641,AcceptabilityJudgment,83,0,t-A1-mar-dat-sbj,27,NULL,1,NULL,2343
1428414975,d1b0b032b2288b39ef1d013776b90641,AcceptabilityJudgment,161,0,filler,NULL,undefined
1428414975,d1b0b032b2288b39ef1d013776b90641,AcceptabilityJudgment,161,0,filler,NULL,NULL,1,NULL,2037
1428414975,d1b0b032b2288b39ef1d013776b90641,AcceptabilityJudgment,122,0,t-A1-jul-dat-obj,40,undefined
1428414975,d1b0b032b2288b39ef1d013776b90641,AcceptabilityJudgment,122,0,t-A1-jul-dat-obj,40,NULL,5,NULL,5739
1428414975,d1b0b032b2288b39ef1d013776b90641,AcceptabilityJudgment,95,0,t-A1-pet-dat-sbj,31,undefined
1428414975,d1b0b032b2288b39ef1d013776b90641,AcceptabilityJudgment,95,0,t-A1-pet-dat-sbj,31,NULL,1,NULL,4440
1428414975,d1b0b032b2288b39ef1d013776b90641,AcceptabilityJudgment,134,0,filler,NULL,undefined
1428414975,d1b0b032b2288b39ef1d013776b90641,AcceptabilityJudgment,134,0,filler,NULL,NULL,5,NULL,8364
1428414975,d1b0b032b2288b39ef1d013776b90641,AcceptabilityJudgment,101,0,t-A1-ada-nom-sbj,33,undefined
1428414975,d1b0b032b2288b39ef1d013776b90641,AcceptabilityJudgment,101,0,t-A1-ada-nom-sbj,33,NULL,1,NULL,3861
1428414975,d1b0b032b2288b39ef1d013776b90641,AcceptabilityJudgment,136,0,filler,NULL,undefined
1428414975,d1b0b032b2288b39ef1d013776b90641,AcceptabilityJudgment,136,0,filler,NULL,NULL,5,NULL,21329
1428414975,d1b0b032b2288b39ef1d013776b90641,AcceptabilityJudgment,107,0,t-A1-ada-dat-sbj,35,undefined
1428414975,d1b0b032b2288b39ef1d013776b90641,AcceptabilityJudgment,107,0,t-A1-ada-dat-sbj,35,NULL,1,NULL,5009
1428414975,d1b0b032b2288b39ef1d013776b90641,AcceptabilityJudgment,110,0,t-A1-ada-dat-obj,36,undefined
1428414975,d1b0b032b2288b39ef1d013776b90641,AcceptabilityJudgment,110,0,t-A1-ada-dat-obj,36,NULL,3,NULL,6063
1428414975,d1b0b032b2288b39ef1d013776b90641,AcceptabilityJudgment,154,0,filler,NULL,undefined
1428414975,d1b0b032b2288b39ef1d013776b90641,AcceptabilityJudgment,154,0,filler,NULL,NULL,3,NULL,3704
1428414975,d1b0b032b2288b39ef1d013776b90641,AcceptabilityJudgment,47,0,t-B1-jul-dat-sbj,15,undefined
1428414975,d1b0b032b2288b39ef1d013776b90641,AcceptabilityJudgment,47,0,t-B1-jul-dat-sbj,15,NULL,3,NULL,3138
1428414975,d1b0b032b2288b39ef1d013776b90641,AcceptabilityJudgment,127,0,t-A2-pet-ext-sbj,NULL,undefined
1428414975,d1b0b032b2288b39ef1d013776b90641,AcceptabilityJudgment,127,0,t-A2-pet-ext-sbj,NULL,NULL,1,NULL,4376
1428414975,d1b0b032b2288b39ef1d013776b90641,AcceptabilityJudgment,145,0,filler,NULL,undefined
1428414975,d1b0b032b2288b39ef1d013776b90641,AcceptabilityJudgment,145,0,filler,NULL,NULL,7,NULL,7337
1428414975,d1b0b032b2288b39ef1d013776b90641,AcceptabilityJudgment,130,0,t-A2-ada-ext-obj,NULL,undefined
1428414975,d1b0b032b2288b39ef1d013776b90641,AcceptabilityJudgment,130,0,t-A2-ada-ext-obj,NULL,NULL,5,NULL,9324
1428414975,d1b0b032b2288b39ef1d013776b90641,AcceptabilityJudgment,146,0,filler,NULL,undefined
1428414975,d1b0b032b2288b39ef1d013776b90641,AcceptabilityJudgment,146,0,filler,NULL,NULL,7,NULL,6804
1428414975,d1b0b032b2288b39ef1d013776b90641,AcceptabilityJudgment,113,0,t-A1-jul-nom-sbj,37,undefined
1428414975,d1b0b032b2288b39ef1d013776b90641,AcceptabilityJudgment,113,0,t-A1-jul-nom-sbj,37,NULL,7,NULL,3349
1428414975,d1b0b032b2288b39ef1d013776b90641,AcceptabilityJudgment,5,0,t-B1-mar-nom-sbj,1,undefined
1428414975,d1b0b032b2288b39ef1d013776b90641,AcceptabilityJudgment,5,0,t-B1-mar-nom-sbj,1,NULL,3,NULL,3586
1428414975,d1b0b032b2288b39ef1d013776b90641,AcceptabilityJudgment,156,0,filler,NULL,undefined
1428414975,d1b0b032b2288b39ef1d013776b90641,AcceptabilityJudgment,156,0,filler,NULL,NULL,1,NULL,3315
1428414975,d1b0b032b2288b39ef1d013776b90641,AcceptabilityJudgment,20,0,t-B1-pet-nom-obj,6,undefined
1428414975,d1b0b032b2288b39ef1d013776b90641,AcceptabilityJudgment,20,0,t-B1-pet-nom-obj,6,NULL,5,NULL,6454
1428414975,d1b0b032b2288b39ef1d013776b90641,AcceptabilityJudgment,150,0,filler,NULL,undefined
1428414975,d1b0b032b2288b39ef1d013776b90641,AcceptabilityJudgment,150,0,filler,NULL,NULL,6,NULL,7075
1428414975,d1b0b032b2288b39ef1d013776b90641,AcceptabilityJudgment,129,0,t-A2-ada-ext-sbj,NULL,undefined
1428414975,d1b0b032b2288b39ef1d013776b90641,AcceptabilityJudgment,129,0,t-A2-ada-ext-sbj,NULL,NULL,5,NULL,3582
1428414975,d1b0b032b2288b39ef1d013776b90641,AcceptabilityJudgment,17,0,t-B1-pet-nom-sbj,5,undefined
1428414975,d1b0b032b2288b39ef1d013776b90641,AcceptabilityJudgment,17,0,t-B1-pet-nom-sbj,5,NULL,2,NULL,3913
1428414975,d1b0b032b2288b39ef1d013776b90641,AcceptabilityJudgment,152,0,filler,NULL,undefined
1428414975,d1b0b032b2288b39ef1d013776b90641,AcceptabilityJudgment,152,0,filler,NULL,NULL,7,NULL,3092
1428414975,d1b0b032b2288b39ef1d013776b90641,AcceptabilityJudgment,132,0,t-A2-jul-ext-obj,NULL,undefined
1428414975,d1b0b032b2288b39ef1d013776b90641,AcceptabilityJudgment,132,0,t-A2-jul-ext-obj,NULL,NULL,4,NULL,4365
1428414975,d1b0b032b2288b39ef1d013776b90641,AcceptabilityJudgment,86,0,t-A1-mar-dat-obj,28,undefined
1428414975,d1b0b032b2288b39ef1d013776b90641,AcceptabilityJudgment,86,0,t-A1-mar-dat-obj,28,NULL,4,NULL,6215
1428414975,d1b0b032b2288b39ef1d013776b90641,AcceptabilityJudgment,151,0,filler,NULL,undefined
1428414975,d1b0b032b2288b39ef1d013776b90641,AcceptabilityJudgment,151,0,filler,NULL,NULL,7,NULL,3077
1428414975,d1b0b032b2288b39ef1d013776b90641,AcceptabilityJudgment,53,0,t-B2-mar-ext-sbj,17,undefined
1428414975,d1b0b032b2288b39ef1d013776b90641,AcceptabilityJudgment,53,0,t-B2-mar-ext-sbj,17,NULL,4,NULL,6675
1428414975,d1b0b032b2288b39ef1d013776b90641,AcceptabilityJudgment,157,0,filler,NULL,undefined
1428414975,d1b0b032b2288b39ef1d013776b90641,AcceptabilityJudgment,157,0,filler,NULL,NULL,1,NULL,2516
1428414975,d1b0b032b2288b39ef1d013776b90641,AcceptabilityJudgment,128,0,t-A2-pet-ext-obj,NULL,undefined
1428414975,d1b0b032b2288b39ef1d013776b90641,AcceptabilityJudgment,128,0,t-A2-pet-ext-obj,NULL,NULL,1,NULL,2877
1428414975,d1b0b032b2288b39ef1d013776b90641,AcceptabilityJudgment,116,0,t-A1-jul-nom-obj,38,undefined
1428414975,d1b0b032b2288b39ef1d013776b90641,AcceptabilityJudgment,116,0,t-A1-jul-nom-obj,38,NULL,7,NULL,2300
1428414975,d1b0b032b2288b39ef1d013776b90641,AcceptabilityJudgment,139,0,filler,NULL,undefined
1428414975,d1b0b032b2288b39ef1d013776b90641,AcceptabilityJudgment,139,0,filler,NULL,NULL,5,NULL,13284
1428414975,d1b0b032b2288b39ef1d013776b90641,AcceptabilityJudgment,126,0,t-A2-mar-ext-obj,NULL,undefined
1428414975,d1b0b032b2288b39ef1d013776b90641,AcceptabilityJudgment,126,0,t-A2-mar-ext-obj,NULL,NULL,4,NULL,4766
1428414975,d1b0b032b2288b39ef1d013776b90641,AcceptabilityJudgment,155,0,filler,NULL,undefined
1428414975,d1b0b032b2288b39ef1d013776b90641,AcceptabilityJudgment,155,0,filler,NULL,NULL,1,NULL,5560
#
# Results on Tuesday April 07 2015 14:08:37 UTC.
# USER AGENT: Mozilla/5.0 (Windows NT 6.1; WOW64; rv:36.0) Gecko/20100101 Firefox/36.0
# Design number was non-random = 38
#
# Columns below this comment are as follows:
# 1. Time results were received.
# 2. MD5 hash of participant's IP address.
# 3. Controller name.
# 4. Item number.
# 5. Element number.
# 6. Type.
# 7. Group.
# 8. Field name.
# 9. Field value.
1428415717,7ed1b6d4ad71f62f4a83c3a4c048cd4c,Form,1,0,intro,NULL,age,36
1428415717,7ed1b6d4ad71f62f4a83c3a4c048cd4c,Form,1,0,intro,NULL,place of birth,Budapest
1428415717,7ed1b6d4ad71f62f4a83c3a4c048cd4c,Form,1,0,intro,NULL,residence,Budapest
1428415717,7ed1b6d4ad71f62f4a83c3a4c048cd4c,Form,1,0,intro,NULL,consent,yes
1428415717,7ed1b6d4ad71f62f4a83c3a4c048cd4c,Form,1,0,intro,NULL,sex,female
# The lines below this comment are in groups of 2.
# The formats of the lines in each of these groups are as follows:
#
# Line 1:
#     Col. 1: Time results were received.
#     Col. 2: MD5 hash of participant's IP address.
#     Col. 3: Controller name.
#     Col. 4: Item number.
#     Col. 5: Element number.
#     Col. 6: Type.
#     Col. 7: Group.
#     Col. 8: Sentence (or sentence MD5).
# Line 2:
#     Col. 1: Time results were received.
#     Col. 2: MD5 hash of participant's IP address.
#     Col. 3: Controller name.
#     Col. 4: Item number.
#     Col. 5: Element number.
#     Col. 6: Type.
#     Col. 7: Group.
#     Col. 8: Question (NULL if none).
#     Col. 9: Answer.
#     Col. 10: Whether or not answer was correct (NULL if N/A).
#     Col. 11: Time taken to answer.
1428415717,7ed1b6d4ad71f62f4a83c3a4c048cd4c,AcceptabilityJudgment,2,0,practice,NULL,undefined
1428415717,7ed1b6d4ad71f62f4a83c3a4c048cd4c,AcceptabilityJudgment,2,0,practice,NULL,NULL,1,NULL,42384
1428415717,7ed1b6d4ad71f62f4a83c3a4c048cd4c,AcceptabilityJudgment,3,0,practice,NULL,undefined
1428415717,7ed1b6d4ad71f62f4a83c3a4c048cd4c,AcceptabilityJudgment,3,0,practice,NULL,NULL,7,NULL,6988
1428415717,7ed1b6d4ad71f62f4a83c3a4c048cd4c,AcceptabilityJudgment,4,0,practice,NULL,undefined
1428415717,7ed1b6d4ad71f62f4a83c3a4c048cd4c,AcceptabilityJudgment,4,0,practice,NULL,NULL,1,NULL,3043
1428415717,7ed1b6d4ad71f62f4a83c3a4c048cd4c,AcceptabilityJudgment,85,0,t-A1-mar-dat-sbj,27,undefined
1428415717,7ed1b6d4ad71f62f4a83c3a4c048cd4c,AcceptabilityJudgment,85,0,t-A1-mar-dat-sbj,27,NULL,1,NULL,4446
1428415717,7ed1b6d4ad71f62f4a83c3a4c048cd4c,AcceptabilityJudgment,70,0,t-C2-ada-ext-obj,22,undefined
1428415717,7ed1b6d4ad71f62f4a83c3a4c048cd4c,AcceptabilityJudgment,70,0,t-C2-ada-ext-obj,22,NULL,1,NULL,4020
1428415717,7ed1b6d4ad71f62f4a83c3a4c048cd4c,AcceptabilityJudgment,138,0,filler,NULL,undefined
1428415717,7ed1b6d4ad71f62f4a83c3a4c048cd4c,AcceptabilityJudgment,138,0,filler,NULL,NULL,5,NULL,6268
1428415717,7ed1b6d4ad71f62f4a83c3a4c048cd4c,AcceptabilityJudgment,97,0,t-A1-pet-dat-sbj,31,undefined
1428415717,7ed1b6d4ad71f62f4a83c3a4c048cd4c,AcceptabilityJudgment,97,0,t-A1-pet-dat-sbj,31,NULL,1,NULL,3154
1428415717,7ed1b6d4ad71f62f4a83c3a4c048cd4c,AcceptabilityJudgment,143,0,filler,NULL,undefined
1428415717,7ed1b6d4ad71f62f4a83c3a4c048cd4c,AcceptabilityJudgment,143,0,filler,NULL,NULL,6,NULL,6576
1428415717,7ed1b6d4ad71f62f4a83c3a4c048cd4c,AcceptabilityJudgment,37,0,t-C3-ada-ext-sbj,11,undefined
1428415717,7ed1b6d4ad71f62f4a83c3a4c048cd4c,AcceptabilityJudgment,37,0,t-C3-ada-ext-sbj,11,NULL,1,NULL,5807
1428415717,7ed1b6d4ad71f62f4a83c3a4c048cd4c,AcceptabilityJudgment,161,0,filler,NULL,undefined
1428415717,7ed1b6d4ad71f62f4a83c3a4c048cd4c,AcceptabilityJudgment,161,0,filler,NULL,NULL,1,NULL,3129
1428415717,7ed1b6d4ad71f62f4a83c3a4c048cd4c,AcceptabilityJudgment,28,0,t-C3-pet-ext-obj,8,undefined
1428415717,7ed1b6d4ad71f62f4a83c3a4c048cd4c,AcceptabilityJudgment,28,0,t-C3-pet-ext-obj,8,NULL,1,NULL,8080
1428415717,7ed1b6d4ad71f62f4a83c3a4c048cd4c,AcceptabilityJudgment,132,0,t-A2-jul-ext-obj,NULL,undefined
1428415717,7ed1b6d4ad71f62f4a83c3a4c048cd4c,AcceptabilityJudgment,132,0,t-A2-jul-ext-obj,NULL,NULL,3,NULL,3362
1428415717,7ed1b6d4ad71f62f4a83c3a4c048cd4c,AcceptabilityJudgment,157,0,filler,NULL,undefined
1428415717,7ed1b6d4ad71f62f4a83c3a4c048cd4c,AcceptabilityJudgment,157,0,filler,NULL,NULL,1,NULL,2514
1428415717,7ed1b6d4ad71f62f4a83c3a4c048cd4c,AcceptabilityJudgment,25,0,t-C3-pet-ext-sbj,7,undefined
1428415717,7ed1b6d4ad71f62f4a83c3a4c048cd4c,AcceptabilityJudgment,25,0,t-C3-pet-ext-sbj,7,NULL,1,NULL,4289
1428415717,7ed1b6d4ad71f62f4a83c3a4c048cd4c,AcceptabilityJudgment,149,0,filler,NULL,undefined
1428415717,7ed1b6d4ad71f62f4a83c3a4c048cd4c,AcceptabilityJudgment,149,0,filler,NULL,NULL,7,NULL,4129
1428415717,7ed1b6d4ad71f62f4a83c3a4c048cd4c,AcceptabilityJudgment,79,0,t-A3-mar-fin-sbj,25,undefined
1428415717,7ed1b6d4ad71f62f4a83c3a4c048cd4c,AcceptabilityJudgment,79,0,t-A3-mar-fin-sbj,25,NULL,1,NULL,3236
1428415717,7ed1b6d4ad71f62f4a83c3a4c048cd4c,AcceptabilityJudgment,146,0,filler,NULL,undefined
1428415717,7ed1b6d4ad71f62f4a83c3a4c048cd4c,AcceptabilityJudgment,146,0,filler,NULL,NULL,7,NULL,6137
1428415717,7ed1b6d4ad71f62f4a83c3a4c048cd4c,AcceptabilityJudgment,88,0,t-A1-mar-dat-obj,28,undefined
1428415717,7ed1b6d4ad71f62f4a83c3a4c048cd4c,AcceptabilityJudgment,88,0,t-A1-mar-dat-obj,28,NULL,1,NULL,3937
1428415717,7ed1b6d4ad71f62f4a83c3a4c048cd4c,AcceptabilityJudgment,125,0,t-A2-mar-ext-sbj,NULL,undefined
1428415717,7ed1b6d4ad71f62f4a83c3a4c048cd4c,AcceptabilityJudgment,125,0,t-A2-mar-ext-sbj,NULL,NULL,1,NULL,2818
1428415717,7ed1b6d4ad71f62f4a83c3a4c048cd4c,AcceptabilityJudgment,154,0,filler,NULL,undefined
1428415717,7ed1b6d4ad71f62f4a83c3a4c048cd4c,AcceptabilityJudgment,154,0,filler,NULL,NULL,1,NULL,2365
1428415717,7ed1b6d4ad71f62f4a83c3a4c048cd4c,AcceptabilityJudgment,55,0,t-C2-mar-ext-sbj,17,undefined
1428415717,7ed1b6d4ad71f62f4a83c3a4c048cd4c,AcceptabilityJudgment,55,0,t-C2-mar-ext-sbj,17,NULL,5,NULL,11120
1428415717,7ed1b6d4ad71f62f4a83c3a4c048cd4c,AcceptabilityJudgment,136,0,filler,NULL,undefined
1428415717,7ed1b6d4ad71f62f4a83c3a4c048cd4c,AcceptabilityJudgment,136,0,filler,NULL,NULL,1,NULL,7133
1428415717,7ed1b6d4ad71f62f4a83c3a4c048cd4c,AcceptabilityJudgment,112,0,t-A1-ada-dat-obj,36,undefined
1428415717,7ed1b6d4ad71f62f4a83c3a4c048cd4c,AcceptabilityJudgment,112,0,t-A1-ada-dat-obj,36,NULL,3,NULL,5224
1428415717,7ed1b6d4ad71f62f4a83c3a4c048cd4c,AcceptabilityJudgment,156,0,filler,NULL,undefined
1428415717,7ed1b6d4ad71f62f4a83c3a4c048cd4c,AcceptabilityJudgment,156,0,filler,NULL,NULL,1,NULL,1928
1428415717,7ed1b6d4ad71f62f4a83c3a4c048cd4c,AcceptabilityJudgment,16,0,t-C3-mar-ext-obj,4,undefined
1428415717,7ed1b6d4ad71f62f4a83c3a4c048cd4c,AcceptabilityJudgment,16,0,t-C3-mar-ext-obj,4,NULL,5,NULL,5745
1428415717,7ed1b6d4ad71f62f4a83c3a4c048cd4c,AcceptabilityJudgment,40,0,t-C3-ada-ext-obj,12,undefined
1428415717,7ed1b6d4ad71f62f4a83c3a4c048cd4c,AcceptabilityJudgment,40,0,t-C3-ada-ext-obj,12,NULL,5,NULL,2528
1428415717,7ed1b6d4ad71f62f4a83c3a4c048cd4c,AcceptabilityJudgment,151,0,filler,NULL,undefined
1428415717,7ed1b6d4ad71f62f4a83c3a4c048cd4c,AcceptabilityJudgment,151,0,filler,NULL,NULL,7,NULL,2249
1428415717,7ed1b6d4ad71f62f4a83c3a4c048cd4c,AcceptabilityJudgment,124,0,t-A1-jul-dat-obj,40,undefined
1428415717,7ed1b6d4ad71f62f4a83c3a4c048cd4c,AcceptabilityJudgment,124,0,t-A1-jul-dat-obj,40,NULL,1,NULL,4465
1428415717,7ed1b6d4ad71f62f4a83c3a4c048cd4c,AcceptabilityJudgment,144,0,filler,NULL,undefined
1428415717,7ed1b6d4ad71f62f4a83c3a4c048cd4c,AcceptabilityJudgment,144,0,filler,NULL,NULL,7,NULL,5800
1428415717,7ed1b6d4ad71f62f4a83c3a4c048cd4c,AcceptabilityJudgment,76,0,t-C2-jul-ext-obj,24,undefined
1428415717,7ed1b6d4ad71f62f4a83c3a4c048cd4c,AcceptabilityJudgment,76,0,t-C2-jul-ext-obj,24,NULL,5,NULL,4226
1428415717,7ed1b6d4ad71f62f4a83c3a4c048cd4c,AcceptabilityJudgment,137,0,filler,NULL,undefined
1428415717,7ed1b6d4ad71f62f4a83c3a4c048cd4c,AcceptabilityJudgment,137,0,filler,NULL,NULL,7,NULL,4155
1428415717,7ed1b6d4ad71f62f4a83c3a4c048cd4c,AcceptabilityJudgment,129,0,t-A2-ada-ext-sbj,NULL,undefined
1428415717,7ed1b6d4ad71f62f4a83c3a4c048cd4c,AcceptabilityJudgment,129,0,t-A2-ada-ext-sbj,NULL,NULL,2,NULL,5619
1428415717,7ed1b6d4ad71f62f4a83c3a4c048cd4c,AcceptabilityJudgment,82,0,t-A3-mar-fin-obj,26,undefined
1428415717,7ed1b6d4ad71f62f4a83c3a4c048cd4c,AcceptabilityJudgment,82,0,t-A3-mar-fin-obj,26,NULL,1,NULL,3236
1428415717,7ed1b6d4ad71f62f4a83c3a4c048cd4c,AcceptabilityJudgment,139,0,filler,NULL,undefined
1428415717,7ed1b6d4ad71f62f4a83c3a4c048cd4c,AcceptabilityJudgment,139,0,filler,NULL,NULL,7,NULL,3932
1428415717,7ed1b6d4ad71f62f4a83c3a4c048cd4c,AcceptabilityJudgment,128,0,t-A2-pet-ext-obj,NULL,undefined
1428415717,7ed1b6d4ad71f62f4a83c3a4c048cd4c,AcceptabilityJudgment,128,0,t-A2-pet-ext-obj,NULL,NULL,3,NULL,6129
1428415717,7ed1b6d4ad71f62f4a83c3a4c048cd4c,AcceptabilityJudgment,153,0,filler,NULL,undefined
1428415717,7ed1b6d4ad71f62f4a83c3a4c048cd4c,AcceptabilityJudgment,153,0,filler,NULL,NULL,7,NULL,6012
1428415717,7ed1b6d4ad71f62f4a83c3a4c048cd4c,AcceptabilityJudgment,118,0,t-A3-jul-fin-obj,38,undefined
1428415717,7ed1b6d4ad71f62f4a83c3a4c048cd4c,AcceptabilityJudgment,118,0,t-A3-jul-fin-obj,38,NULL,2,NULL,4050
1428415717,7ed1b6d4ad71f62f4a83c3a4c048cd4c,AcceptabilityJudgment,141,0,filler,NULL,undefined
